Time [s],AccX [m/s^2],AccY [m/s^2],AccZ [m/s^2],GyroX [rad/s],GyroY [rad/s],GyroZ [rad/s]
0,0.0141437669,-0.0424285582,0.0340614522,5.15718033e-05,-5.14941584e-05,-0.0300001476
0.1,0.0113313437,-0.0452671281,0.034061124,5.17424944e-05,-5.13296244e-05,-0.0319782398
0.2,0.00852436264,-0.0480977725,0.0340607359,5.19228979e-05,-5.11543873e-05,-0.0339541903
0.3,0.0057257692,-0.0509210911,0.0340602878,5.21127108e-05,-5.09683613e-05,-0.0359292309
0.4,0.00293829677,-0.0537376146,0.0340597798,5.23121174e-05,-5.07714454e-05,-0.0379049856
0.5,0.000164731724,-0.0565478816,0.034059212,5.25208685e-05,-5.05635278e-05,-0.0398829363
0.6,-0.00259215636,-0.0593524163,0.0340585846,5.27387014e-05,-5.03444814e-05,-0.0418645794
0.7,-0.00532959479,-0.062151733,0.0340578977,5.2965839e-05,-5.01141679e-05,-0.0438513802
0.8,-0.00804481202,-0.0649463329,0.0340571515,5.32018392e-05,-4.98724356e-05,-0.0458447863
0.9,-0.0107350354,-0.0677367035,0.0340563462,5.34467476e-05,-4.96191196e-05,-0.047846223
1,-0.0133974909,-0.0705233167,0.034055482,5.37005756e-05,-4.93540433e-05,-0.0498570945
1.1,-0.0160294023,-0.0733066273,0.0340545591,5.39629701e-05,-4.90770172e-05,-0.0518787823
1.2,-0.0186279906,-0.0760870711,0.0340535779,5.42338063e-05,-4.87878379e-05,-0.0539126449
1.3,-0.0211904735,-0.0788650634,0.0340525386,5.45132286e-05,-4.8486291e-05,-0.0559600164
1.4,-0.0237140652,-0.0816409968,0.0340514416,5.48008845e-05,-4.81721494e-05,-0.0580222051
1.5,-0.0261959758,-0.0844152394,0.0340502872,5.50968675e-05,-4.78451731e-05,-0.060100492
1.6,-0.0286334112,-0.0871881322,0.0340490759,5.54007818e-05,-4.7505111e-05,-0.0621961284
1.7,-0.0310235733,-0.0899599872,0.0340478079,5.57124743e-05,-4.71516968e-05,-0.0643103342
1.8,-0.0333636595,-0.0927310849,0.0340464837,5.60320952e-05,-4.67846553e-05,-0.0664442947
1.9,-0.0356508635,-0.0955016711,0.0340451038,5.63591213e-05,-4.64036974e-05,-0.0685991577
2,-0.0378823752,-0.0982719548,0.0340436687,5.66937231e-05,-4.60085222e-05,-0.07077603
2.1,-0.0400553814,-0.101042105,0.0340421788,5.70355575e-05,-4.55988193e-05,-0.0729759739
2.2,-0.0421670667,-0.103812247,0.0340406347,5.73843543e-05,-4.51742638e-05,-0.0752000022
2.3,-0.0442146143,-0.106582459,0.0340390368,5.77399997e-05,-4.47345216e-05,-0.0774490739
2.4,-0.0461952069,-0.109352771,0.0340373859,5.81024286e-05,-4.42792467e-05,-0.0797240886
2.5,-0.0481060288,-0.112123157,0.0340356824,5.84711405e-05,-4.38080852e-05,-0.0820258809
2.6,-0.0499442671,-0.114893535,0.034033927,5.88460265e-05,-4.33206685e-05,-0.0843552135
2.7,-0.0517071138,-0.117663758,0.0340321203,5.92269697e-05,-4.28166244e-05,-0.0867127705
2.8,-0.0533917684,-0.120433615,0.034030263,5.96133962e-05,-4.22955673e-05,-0.08909915
2.9,-0.0549954405,-0.123202823,0.0340283557,6.00052434e-05,-4.17571058e-05,-0.0915148553
3,-0.0565153532,-0.125971025,0.0340263991,6.04019619e-05,-4.120084e-05,-0.0939602863
3.1,-0.0579487462,-0.128737781,0.034024394,6.08035064e-05,-4.06263637e-05,-0.0964357301
3.2,-0.0592928805,-0.131502566,0.0340223411,6.12093771e-05,-4.00332677e-05,-0.0989413504
3.3,-0.0605450426,-0.134264764,0.0340202411,6.16190424e-05,-3.9421135e-05,-0.101477177
3.4,-0.0617025498,-0.137023664,0.0340180949,6.20324042e-05,-3.8789548e-05,-0.104043094
3.5,-0.0627627559,-0.139778451,0.0340159032,6.24487092e-05,-3.8138088e-05,-0.106638829
3.6,-0.0637230577,-0.142528203,0.0340136669,6.28676238e-05,-3.74663333e-05,-0.109263937
3.7,-0.0645809019,-0.145271886,0.0340113867,6.32888163e-05,-3.67738688e-05,-0.111917792
3.8,-0.0653337931,-0.148008345,0.0340090636,6.37113456e-05,-3.60602801e-05,-0.114599569
3.9,-0.0659793022,-0.150736304,0.0340066984,6.41349244e-05,-3.53251573e-05,-0.117308231
4,-0.0665150755,-0.153454354,0.0340042919,6.45590514e-05,-3.45681034e-05,-0.120042518
4.1,-0.0669388453,-0.156160952,0.0340018452,6.49828253e-05,-3.37887293e-05,-0.122800926
4.2,-0.0672484405,-0.158854417,0.033999359,6.54057564e-05,-3.29866594e-05,-0.125581699
4.3,-0.0674417985,-0.161532919,0.0339968344,6.58270837e-05,-3.21615365e-05,-0.12838281
4.4,-0.0675169779,-0.164194483,0.0339942723,6.62461017e-05,-3.13130212e-05,-0.131201946
4.5,-0.0674721719,-0.166836979,0.0339916737,6.66619295e-05,-3.04407992e-05,-0.1340365
4.6,-0.0673057231,-0.169458122,0.0339890394,6.7073713e-05,-2.95445793e-05,-0.136883552
4.7,-0.0670161383,-0.172055468,0.0339863706,6.74808333e-05,-2.86241045e-05,-0.13973986
4.8,-0.0666021044,-0.174626415,0.0339836682,6.78822649e-05,-2.76791522e-05,-0.142601851
4.9,-0.0660625056,-0.177168199,0.0339809332,6.82769683e-05,-2.67095368e-05,-0.145465607
5,-0.0653964405,-0.179677898,0.0339781667,6.86641495e-05,-2.57151158e-05,-0.148326863
5.1,-0.06460324,-0.182152432,0.0339753697,6.90426217e-05,-2.46957958e-05,-0.151181001
5.2,-0.0636824855,-0.184588566,0.0339725432,6.94115396e-05,-2.36515318e-05,-0.154023049
5.3,-0.0626340279,-0.186982918,0.0339696883,6.97696789e-05,-2.25823412e-05,-0.156847681
5.4,-0.0614580058,-0.189331962,0.0339668061,7.01160362e-05,-2.14882948e-05,-0.159649224
5.5,-0.0601548645,-0.191632037,0.0339638976,7.04497292e-05,-2.03695392e-05,-0.162421664
5.6,-0.0587253743,-0.19387936,0.033960964,7.07690406e-05,-1.92262833e-05,-0.165158666
5.7,-0.0571706479,-0.196070036,0.0339580062,7.10734136e-05,-1.80588107e-05,-0.167853584
5.8,-0.0554921574,-0.198200073,0.0339550255,7.13615274e-05,-1.68674922e-05,-0.17049949
5.9,-0.0536917503,-0.200265395,0.0339520229,7.1631962e-05,-1.56527705e-05,-0.173089199
6,-0.0517716632,-0.202261869,0.0339489996,7.18840576e-05,-1.44151809e-05,-0.175615305
6.1,-0.0497345348,-0.204185315,0.0339459566,7.21161867e-05,-1.31553479e-05,-0.178070219
6.2,-0.0475834162,-0.206031537,0.0339428951,7.23275689e-05,-1.18739804e-05,-0.180446212
6.3,-0.0453217786,-0.207796342,0.0339398162,7.25170578e-05,-1.05718926e-05,-0.182735468
6.4,-0.0429535186,-0.209475569,0.0339367211,7.2683507e-05,-9.24998113e-06,-0.184930133
6.5,-0.0404829602,-0.211065114,0.0339336109,7.28259538e-05,-7.90924705e-06,-0.187022379
6.6,-0.0379148539,-0.212560963,0.0339304867,7.2943347e-05,-6.55077614e-06,-0.189004466
6.7,-0.0352543711,-0.213959216,0.0339273498,7.303511e-05,-5.17575673e-06,-0.190868805
6.8,-0.0325070961,-0.215256122,0.0339242013,7.3099988e-05,-3.78546291e-06,-0.192608029
6.9,-0.0296790129,-0.216448106,0.0339210423,7.31374335e-05,-2.38125349e-06,-0.194215063
7,-0.0267764887,-0.2175318,0.0339178741,7.31467504e-05,-9.64575089e-07,-0.195683191
7.1,-0.023806253,-0.218504074,0.0339146978,7.31272418e-05,4.63053136e-07,-0.197006129
7.2,-0.0207753726,-0.219362063,0.0339115146,7.30789029e-05,1.90003582e-06,-0.198178091
7.3,-0.017691223,-0.220103194,0.0339083257,7.30007029e-05,3.34471106e-06,-0.199193851
7.4,-0.0145614559,-0.220725207,0.0339051323,7.28925445e-05,4.79537664e-06,-0.200048804
7.5,-0.011393963,-0.221226183,0.0339019355,7.27545853e-05,6.25026564e-06,-0.200739019
7.6,-0.00819683772,-0.22160456,0.0338987367,7.25864703e-05,7.70758439e-06,-0.201261286
7.7,-0.00497833299,-0.221859145,0.033895537,7.2388391e-05,9.16550728e-06,-0.201613153
7.8,-0.00174681816,-0.221989134,0.0338923376,7.21603333e-05,1.06221979e-05,-0.201792959
7.9,0.00148926631,-0.221994113,0.0338891398,7.190287e-05,1.20758121e-05,-0.20179985
8,0.00472145491,-0.221874067,0.0338859447,7.1616283e-05,1.35245098e-05,-0.201633793
8.1,0.0079413035,-0.221629377,0.0338827536,7.13009551e-05,1.49664733e-05,-0.201295578
8.2,0.0111404354,-0.221260818,0.0338795678,7.09578207e-05,1.63999107e-05,-0.200786801
8.3,0.0143105867,-0.220769551,0.0338763884,7.05873057e-05,1.78230671e-05,-0.200109852
8.4,0.01744365,-0.220157108,0.0338732167,7.01903808e-05,1.92342448e-05,-0.199267883
8.5,0.0205317157,-0.219425383,0.0338700539,6.97680778e-05,2.06317947e-05,-0.198264768
8.6,0.0235671119,-0.218576607,0.0338669012,6.93211698e-05,2.2014144e-05,-0.197105061
8.7,0.0265424398,-0.21761333,0.0338637599,6.88507291e-05,2.3379793e-05,-0.19579394
8.8,0.0294506068,-0.216538395,0.0338606312,6.83580982e-05,2.47273282e-05,-0.19433715
8.9,0.0322848558,-0.215354913,0.0338575163,6.78443962e-05,2.60554177e-05,-0.192740937
9,0.0350387897,-0.214066232,0.0338544164,6.7310535e-05,2.73628345e-05,-0.191011985
9.1,0.0377063935,-0.212675912,0.0338513328,6.67583666e-05,2.86484446e-05,-0.189157342
9.2,0.0402820505,-0.211187692,0.0338482666,6.61887317e-05,2.9911211e-05,-0.187184356
9.3,0.0427605559,-0.20960546,0.033845219,6.56030322e-05,3.11502118e-05,-0.1851006
9.4,0.0451371257,-0.207933224,0.0338421913,6.5002711e-05,3.23646173e-05,-0.182913805
9.5,0.0474074017,-0.20617508,0.0338391846,6.4388933e-05,3.35537113e-05,-0.180631794
9.6,0.0495674533,-0.204335187,0.0338362001,6.37631741e-05,3.4716873e-05,-0.17826242
9.7,0.0516137756,-0.202417735,0.0338332389,6.31266855e-05,3.58535877e-05,-0.175813506
9.8,0.0535432844,-0.200426922,0.0338303022,6.24808457e-05,3.6963434e-05,-0.173292789
9.9,0.0553533084,-0.198366928,0.0338273912,6.18266336e-05,3.804609e-05,-0.170707871
10,0.0570415794,-0.196241893,0.0338245068,6.11655736e-05,3.91013248e-05,-0.168066174
10.1,0.0586062194,-0.194055897,0.0338216504,6.04987842e-05,4.01289897e-05,-0.165374901
10.2,0.0600457271,-0.191812939,0.0338188228,5.98274778e-05,4.11290223e-05,-0.162641004
10.3,0.0613589617,-0.189516923,0.0338160253,5.91526689e-05,4.21014325e-05,-0.159871149
10.4,0.0625451262,-0.187171641,0.0338132589,5.84754301e-05,4.30463082e-05,-0.157071699
10.5,0.0636037503,-0.184780765,0.0338105246,5.7796926e-05,4.39637969e-05,-0.154248693
10.6,0.0645346715,-0.182347831,0.0338078235,5.71180081e-05,4.48541111e-05,-0.151407832
10.7,0.0653380167,-0.179876233,0.0338051566,5.64396245e-05,4.57175162e-05,-0.14855447
10.8,0.0660141837,-0.177369219,0.0338025248,5.57627478e-05,4.65543294e-05,-0.145693606
10.9,0.0665638223,-0.174829879,0.0337999291,5.50882554e-05,4.73649087e-05,-0.142829889
11,0.0669878162,-0.17226115,0.0337973706,5.44166949e-05,4.81496551e-05,-0.139967609
11.1,0.0672872648,-0.169665807,0.0337948501,5.37489513e-05,4.89090043e-05,-0.137110713
11.2,0.0674634658,-0.167046467,0.0337923686,5.3085778e-05,4.96434197e-05,-0.134262801
11.3,0.0675178989,-0.164405584,0.0337899269,5.24278348e-05,5.03533902e-05,-0.13142714
11.4,0.0674522091,-0.161745458,0.033787526,5.17756201e-05,5.10394257e-05,-0.128606677
11.5,0.0672681916,-0.159068229,0.0337851667,5.11297084e-05,5.17020555e-05,-0.125804043
11.6,0.0669677777,-0.156375886,0.0337828498,5.04906667e-05,5.23418203e-05,-0.123021572
11.7,0.0665530208,-0.153670269,0.0337805762,4.98587658e-05,5.29592728e-05,-0.120261315
11.8,0.0660260838,-0.150953072,0.0337783467,4.92348355e-05,5.35549728e-05,-0.117525049
11.9,0.0653892272,-0.148225848,0.0337761621,4.8619125e-05,5.41294798e-05,-0.114814297
12,0.0646447982,-0.145490016,0.0337740231,4.80118465e-05,5.4683361e-05,-0.112130338
12.1,0.0637952201,-0.142746864,0.0337719304,4.74133399e-05,5.52171801e-05,-0.109474227
12.2,0.0628429836,-0.139997555,0.0337698848,4.68240693e-05,5.57315009e-05,-0.106846804
12.3,0.0617906375,-0.137243133,0.0337678869,4.62444946e-05,5.62268769e-05,-0.104248712
12.4,0.0606407813,-0.134484529,0.0337659375,4.56744024e-05,5.67038598e-05,-0.101680408
12.5,0.0593960581,-0.131722565,0.0337640372,4.51141231e-05,5.71629947e-05,-0.0991421785
12.6,0.0580591479,-0.128957962,0.0337621867,4.4564333e-05,5.76048152e-05,-0.0966341521
12.7,0.0566327618,-0.126191342,0.0337603864,4.4024852e-05,5.80298423e-05,-0.0941563096
12.8,0.0551196372,-0.123423238,0.0337586371,4.34956501e-05,5.84385925e-05,-0.0917084975
12.9,0.0535225327,-0.120654095,0.0337569393,4.29772374e-05,5.88315665e-05,-0.0892904383
13,0.051844224,-0.117884277,0.0337552935,4.24697163e-05,5.92092528e-05,-0.0869017407
13.1,0.0500875007,-0.115114074,0.0337537002,4.19729832e-05,5.95721268e-05,-0.0845419091
13.2,0.0482551624,-0.112343703,0.0337521599,4.14872686e-05,5.99206529e-05,-0.0822103529
13.3,0.0463500168,-0.109573313,0.0337506732,4.10128078e-05,6.02552782e-05,-0.0799063945
13.4,0.0443748762,-0.106802993,0.0337492404,4.05494133e-05,6.05764379e-05,-0.0776292771
13.5,0.0423325565,-0.104032773,0.033747862,4.00973068e-05,6.08845532e-05,-0.0753781716
13.6,0.0402258746,-0.101262627,0.0337465383,3.9656657e-05,6.11800297e-05,-0.0731521834
13.7,0.0380576476,-0.0984924814,0.0337452698,3.92273903e-05,6.14632586e-05,-0.0709503581
13.8,0.035830691,-0.0957222137,0.0337440568,3.88095999e-05,6.17346177e-05,-0.0687716868
13.9,0.0335478183,-0.0929516584,0.0337428997,3.84033264e-05,6.19944693e-05,-0.0666151111
14,0.0312118396,-0.0901806097,0.0337417987,3.80086235e-05,6.22431625e-05,-0.0644795277
14.1,0.0288255618,-0.0874088245,0.033740754,3.76255226e-05,6.24810311e-05,-0.0623637917
14.2,0.0263917876,-0.0846360251,0.0337397661,3.72541108e-05,6.27083953e-05,-0.0602667208
14.3,0.0239133156,-0.081861902,0.033738835,3.68942631e-05,6.2925561e-05,-0.0581870978
14.4,0.0213929402,-0.0790861161,0.0337379611,3.65462229e-05,6.31328212e-05,-0.0561236737
14.5,0.0188334515,-0.0763083017,0.0337371444,3.62102094e-05,6.33304524e-05,-0.0540751699
14.6,0.0162376358,-0.0735280678,0.0337363852,3.5885757e-05,6.35187198e-05,-0.0520402801
14.7,0.0136082755,-0.0707450011,0.0337356836,3.55730945e-05,6.36978757e-05,-0.0500176722
14.8,0.01094815,-0.0679586671,0.0337350397,3.52724326e-05,6.38681579e-05,-0.0480059898
14.9,0.00826003555,-0.0651686126,0.0337344535,3.49837896e-05,6.40297908e-05,-0.0460038529
15,0.00554670648,-0.0623743671,0.0337339252,3.47071567e-05,6.41829861e-05,-0.0440098593
15.1,0.00281093543,-0.0595754441,0.0337334547,3.44424226e-05,6.43279433e-05,-0.0420225851
15.2,5.54942073e-05,-0.0567713435,0.0337330421,3.41899287e-05,6.44648489e-05,-0.0400405851
15.3,-0.00271684537,-0.0539615521,0.0337326873,3.39495882e-05,6.45938761e-05,-0.0380623934
15.4,-0.0055033107,-0.0511455457,0.0337323904,3.37213385e-05,6.47151868e-05,-0.0360865232
15.5,-0.00830112735,-0.0483227899,0.0337321512,3.35054759e-05,6.48289298e-05,-0.0341114668
15.6,-0.0111075182,-0.0454927417,0.0337319697,3.33021271e-05,6.49352414e-05,-0.0321356957
15.7,-0.0139197023,-0.0426548506,0.0337318457,3.31109303e-05,6.50342455e-05,-0.0301576602
15.8,-0.0167348939,-0.0398085599,0.0337317791,3.29324039e-05,6.51260553e-05,-0.0281757889
15.9,-0.0195503009,-0.0369533077,0.0337317698,3.27666161e-05,6.5210769e-05,-0.0261884885
16,-0.0223631244,-0.0340885282,0.0337318175,3.26133147e-05,6.5288475e-05,-0.0241941429
16.1,-0.0251705565,-0.0312136528,0.0337319221,3.24731721e-05,6.53592477e-05,-0.0221911131
16.2,-0.0279697798,-0.0283281114,0.0337320833,3.23456492e-05,6.54231497e-05,-0.020177736
16.3,-0.0307579655,-0.0254313335,0.0337323009,3.22311783e-05,6.54802318e-05,-0.0181523245
16.4,-0.0335322723,-0.0225227492,0.0337325745,3.21301268e-05,6.55305306e-05,-0.016113166
16.5,-0.0362898445,-0.0196017911,0.0337329038,3.20421956e-05,6.55740711e-05,-0.0140585225
16.6,-0.0390278113,-0.0166678948,0.0337332886,3.19677148e-05,6.56108647e-05,-0.0119866299
16.7,-0.041743284,-0.0137205012,0.0337337285,3.19069267e-05,6.56409098e-05,-0.00989569711
16.8,-0.0444333556,-0.0107590573,0.033734223,3.1859845e-05,6.56641911e-05,-0.00778390608
16.9,-0.0470950983,-0.00778301807,0.0337347719,3.18266672e-05,6.56806796e-05,-0.00564941132
17,-0.0497255621,-0.0047918482,0.0337353746,3.18075642e-05,6.56903324e-05,-0.00349033983
17.1,-0.0523217731,-0.00178502386,0.0337360308,3.1802675e-05,6.56930916e-05,-0.00130479111
17.2,-0.0548807313,0.00123796527,0.0337367399,3.18123418e-05,6.56888849e-05,0.000909162527
17.3,-0.0573994093,0.00427761384,0.0337375014,3.18366107e-05,6.56776242e-05,0.00315347544
17.4,-0.0598747501,0.00733439845,0.0337383149,3.18756833e-05,6.5659206e-05,0.0054301278
17.5,-0.0623036651,0.0104087751,0.0337391799,3.1929918e-05,6.56335102e-05,0.00774112442
17.6,-0.0646830325,0.0135011764,0.0337400957,3.19993758e-05,6.56003998e-05,0.0100884931
17.7,-0.0670096953,0.0166120083,0.0337410617,3.20843175e-05,6.55597204e-05,0.0124742826
17.8,-0.0692804592,0.0197416473,0.0337420774,3.2184985e-05,6.55112992e-05,0.01490056
17.9,-0.071492091,0.0228904359,0.0337431422,3.2301535e-05,6.54549448e-05,0.0173694073
18,-0.0736413166,0.0260586795,0.0337442554,3.24345255e-05,6.53904459e-05,0.019882918
18.1,-0.0757248194,0.0292466414,0.0337454164,3.25839201e-05,6.53175716e-05,0.0224431918
18.2,-0.0777392384,0.0324545383,0.0337466244,3.27499161e-05,6.52360689e-05,0.0250523293
18.3,-0.0796811669,0.035682535,0.0337478788,3.29328426e-05,6.51456633e-05,0.0277124257
18.4,-0.0815471512,0.0389307388,0.0337491788,3.31331798e-05,6.5046057e-05,0.0304255627
18.5,-0.0833336891,0.0421991932,0.0337505238,3.3351146e-05,6.49369301e-05,0.0331938
18.6,-0.0850372294,0.0454878714,0.0337519129,3.35865279e-05,6.4817936e-05,0.0360191649
18.7,-0.0866541709,0.0487966686,0.0337533454,3.38402102e-05,6.46887029e-05,0.0389036408
18.8,-0.0881808627,0.0521253948,0.0337548205,3.41122557e-05,6.45488343e-05,0.0418491539
18.9,-0.0896136037,0.0554737653,0.0337563373,3.44026642e-05,6.43979039e-05,0.044857558
19,-0.090948644,0.0588413925,0.0337578951,3.47120405e-05,6.42354582e-05,0.0479306175
19.1,-0.0921821857,0.0622277755,0.033759493,3.50404023e-05,6.40610144e-05,0.0510699886
19.2,-0.0933103853,0.0656322893,0.0337611301,3.53881166e-05,6.38740589e-05,0.0542771973
19.3,-0.0943293563,0.0690541739,0.0337628056,3.57555904e-05,6.36740486e-05,0.0575536161
19.4,-0.0952351733,0.072492522,0.0337645186,3.6142653e-05,6.34604084e-05,0.0609004374
19.5,-0.0960238762,0.0759462661,0.0337662681,3.65494991e-05,6.32325287e-05,0.0643186441
19.6,-0.096691477,0.0794141649,0.0337680533,3.69766929e-05,6.29897693e-05,0.0678089779
19.7,-0.0972339667,0.0828947892,0.0337698732,3.74241996e-05,6.27314577e-05,0.0713719038
19.8,-0.0976473244,0.0863865067,0.0337717268,3.78920424e-05,6.24568866e-05,0.0750075721
19.9,-0.0979275278,0.0898874666,0.0337736132,3.83804391e-05,6.21653165e-05,0.0787157772
20,-0.0980705661,0.0933955831,0.0337755315,3.88894875e-05,6.18559758e-05,0.0824959128
20.1,-0.0980724541,0.0969085194,0.0337774806,3.94188917e-05,6.15280607e-05,0.0863469249
20.2,-0.0979292497,0.100423671,0.0337794596,3.99688755e-05,6.11807345e-05,0.0902672609
20.3,-0.0976370726,0.103938147,0.0337814674,4.05395332e-05,6.08131365e-05,0.0942548168
20.4,-0.0971921268,0.107448757,0.033783503,4.11301819e-05,6.04243752e-05,0.098306882
20.5,-0.0965907254,0.11095199,0.0337855654,4.17411838e-05,6.00135348e-05,0.102420082
20.6,-0.0958293186,0.114444004,0.0337876537,4.23718777e-05,5.95796833e-05,0.106590321
20.7,-0.0949045243,0.117920607,0.0337897666,4.30219187e-05,5.91218636e-05,0.110812722
20.8,-0.0938131631,0.121377244,0.0337919033,4.3691187e-05,5.8639115e-05,0.11508157
20.9,-0.0925522953,0.124808991,0.0337940626,4.43787735e-05,5.81304652e-05,0.119390258
21,-0.091119262,0.128210539,0.0337962434,4.50843168e-05,5.75949439e-05,0.12373123
21.1,-0.0895117294,0.131576194,0.0337984448,4.58068756e-05,5.70315882e-05,0.128095938
21.2,-0.0877277356,0.13489987,0.0338006657,4.6545749e-05,5.64394497e-05,0.132474803
21.3,-0.0857657407,0.138175096,0.033802905,4.73001532e-05,5.58176093e-05,0.136857175
21.4,-0.0836246788,0.14139502,0.0338051616,4.80687364e-05,5.51651824e-05,0.141231325
21.5,-0.0813040125,0.144552421,0.0338074344,4.88504223e-05,5.44813297e-05,0.145584427
21.6,-0.0788037879,0.14763973,0.0338097225,4.96438326e-05,5.37652745e-05,0.149902577
21.7,-0.07612469,0.150649054,0.0338120246,5.04478144e-05,5.3016311e-05,0.154170811
21.8,-0.0732680981,0.153572209,0.0338143398,5.12608435e-05,5.22338286e-05,0.158373164
21.9,-0.0702361386,0.156400761,0.0338166669,5.20810215e-05,5.14173118e-05,0.162492733
22,-0.0670317353,0.159126074,0.0338190049,5.29066998e-05,5.05663655e-05,0.166511777
22.1,-0.0636586553,0.161739368,0.0338213527,5.37358885e-05,4.96807245e-05,0.170411838
22.2,-0.0601215488,0.164231783,0.0338237093,5.4567105e-05,4.87602743e-05,0.174173889
22.3,-0.0564259814,0.16659445,0.0338260735,5.53980337e-05,4.78050687e-05,0.177778511
22.4,-0.0525784575,0.168818574,0.0338284443,5.62263528e-05,4.6815327e-05,0.181206086
22.5,-0.0485864338,0.170895515,0.0338308207,5.70501916e-05,4.57914631e-05,0.18443703
22.6,-0.0444583193,0.172816884,0.0338332015,5.78674482e-05,4.47340906e-05,0.187452027
22.7,-0.0402034645,0.174574632,0.0338355856,5.86758212e-05,4.36440351e-05,0.190232295
22.8,-0.0358321345,0.17616115,0.0338379721,5.94730056e-05,4.25223311e-05,0.192759851
22.9,-0.0313554686,0.17756936,0.0338403598,6.02569423e-05,4.13702347e-05,0.195017787
23,-0.0267854244,0.178792814,0.0338427476,6.10256944e-05,4.01892205e-05,0.196990542
23.1,-0.0221347077,0.179825775,0.0338451345,6.17768878e-05,3.8980982e-05,0.198664162
23.2,-0.0174166876,0.180663306,0.0338475194,6.2508791e-05,3.77474119e-05,0.200026545
23.3,-0.0126452993,0.181301336,0.0338499012,6.32195141e-05,3.64906141e-05,0.201067659
23.4,-0.00783493412,0.181736725,0.0338522788,6.39073757e-05,3.52128639e-05,0.201779727
23.5,-0.00300032193,0.181967309,0.0338546511,6.45708272e-05,3.39166162e-05,0.202157376
23.6,0.00184359544,0.181991937,0.0338570169,6.52084939e-05,3.26044596e-05,0.202197736
23.7,0.00668179423,0.181810485,0.0338593753,6.58191811e-05,3.1279118e-05,0.2019005
23.8,0.011499301,0.181423861,0.0338617252,6.64018854e-05,2.99434002e-05,0.201267928
23.9,0.0162813238,0.180833989,0.0338640653,6.69558029e-05,2.86001975e-05,0.200304803
24,0.0210133791,0.180043779,0.0338663946,6.74803259e-05,2.725243e-05,0.19901834
24.1,0.0256814126,0.179057084,0.033868712,6.79750685e-05,2.59030437e-05,0.197418048
24.2,0.0302719105,0.177878643,0.0338710163,6.84397702e-05,2.45549563e-05,0.195515553
24.3,0.0347720004,0.176514006,0.0338733066,6.88746369e-05,2.32110548e-05,0.193324388
24.4,0.0391695391,0.174969461,0.0338755816,6.927951e-05,2.18741479e-05,0.190859753
24.5,0.043453186,0.173251943,0.0338778403,6.96549149e-05,2.05469543e-05,0.188138258
24.6,0.0476124629,0.171368943,0.0338800815,7.00014587e-05,1.92320779e-05,0.185177655
24.7,0.0516377981,0.169328413,0.0338823043,7.03196989e-05,1.7931992e-05,0.18199656
24.8,0.0555205559,0.16713867,0.0338845075,7.06102471e-05,1.66490147e-05,0.178614185
24.9,0.0592530518,0.164808302,0.0338866901,7.08743334e-05,1.53853052e-05,0.175050074
25,0.0628285546,0.162346076,0.033888851,7.11127573e-05,1.41428537e-05,0.171323855
25.1,0.0662412762,0.15976085,0.0338909892,7.13266012e-05,1.29234671e-05,0.167455017
25.2,0.0694863505,0.157061493,0.0338931037,7.15172065e-05,1.17287763e-05,0.163462695
25.3,0.0725598026,0.15425681,0.0338951934,7.16854584e-05,1.05602271e-05,0.1593655
25.4,0.0754585113,0.151355478,0.0338972573,7.18327023e-05,9.41908247e-06,0.155181354
25.5,0.0781801641,0.148365983,0.0338992946,7.19605184e-05,8.30643373e-06,0.150927371
25.6,0.080723208,0.145296573,0.0339013041,7.20696843e-05,7.2232011e-06,0.146619747
25.7,0.083086797,0.142155213,0.0339032851,7.21616721e-05,6.17013435e-06,0.14227369
25.8,0.0852707375,0.138949554,0.0339052364,7.2237837e-05,5.14783746e-06,0.137903362
25.9,0.0872754326,0.1356869,0.0339071574,7.22992366e-05,4.15676216e-06,0.133521846
26,0.0891018269,0.132374193,0.033909047,7.23471767e-05,3.19722922e-06,0.129141135
26.1,0.0907513518,0.129017998,0.0339109044,7.2382569e-05,2.26943056e-06,0.124772134
26.2,0.092225873,0.12562449,0.0339127288,7.24069809e-05,1.37344637e-06,0.120424676
26.3,0.09352764,0.122199459,0.0339145192,7.24213732e-05,5.09257299e-07,0.116107553
26.4,0.094659238,0.118748304,0.033916275,7.24263564e-05,-3.23254281e-07,0.111828552
26.5,0.0956235436,0.115276041,0.0339179954,7.24233422e-05,-1.12428791e-06,0.107594502
26.6,0.0964236824,0.111787313,0.0339196795,7.24133772e-05,-1.89411042e-06,0.103411328
26.7,0.0970629913,0.108286396,0.0339213266,7.23969344e-05,-2.63305517e-06,0.0992841009
26.8,0.0975449831,0.104777215,0.0339229359,7.23749903e-05,-3.34151103e-06,0.0952170977
26.9,0.0978733145,0.10126336,0.0339245069,7.23486221e-05,-4.01990963e-06,0.0912138603
27,0.0980517579,0.0977480945,0.0339260388,7.23181532e-05,-4.66872102e-06,0.0872772524
27.1,0.0980841754,0.0942343804,0.0339275308,7.22842164e-05,-5.28845042e-06,0.0834095181
27.2,0.0979744963,0.090724889,0.0339289825,7.22480485e-05,-5.87962363e-06,0.0796123365
27.3,0.0977266972,0.0872220195,0.033930393,7.22097075e-05,-6.44278439e-06,0.0758868762
27.4,0.0973447841,0.0837279161,0.033931762,7.2169871e-05,-6.9784949e-06,0.072233846
27.5,0.0968327778,0.0802444843,0.0339330886,7.21290261e-05,-7.48732168e-06,0.0686535431
27.6,0.0961947005,0.076773407,0.0339343725,7.20875515e-05,-7.96984034e-06,0.0651458983
27.7,0.095434565,0.0733161608,0.033935613,7.20461999e-05,-8.42662336e-06,0.0617105182
27.8,0.0945563651,0.0698740304,0.0339368095,7.20050194e-05,-8.85824316e-06,0.058346724
27.9,0.093564068,0.0664481236,0.0339379617,7.19644572e-05,-9.26526713e-06,0.0550535872
28,0.092461608,0.0630393848,0.033939069,7.19247746e-05,-9.64825513e-06,0.0518299628
28.1,0.0912528812,0.059648608,0.033940131,7.18863827e-05,-1.00077574e-05,0.0486745188
28.2,0.0899417418,0.0562764494,0.0339411472,7.18495456e-05,-1.0344312e-05,0.0455857636
28.3,0.0885319986,0.0529234385,0.0339421172,7.18143405e-05,-1.0658445e-05,0.0425620701
28.4,0.0870274133,0.0495899892,0.0339430405,7.17811261e-05,-1.09506683e-05,0.039601698
28.5,0.0854316985,0.0462764098,0.0339439169,7.17500728e-05,-1.12214778e-05,0.036702813
28.6,0.0837485174,0.0429829121,0.0339447459,7.17212315e-05,-1.14713541e-05,0.033863505
28.7,0.0819814829,0.0397096206,0.0339455273,7.16947382e-05,-1.17007612e-05,0.031081803
28.8,0.0801341582,0.03645658,0.0339462606,7.16708362e-05,-1.19101457e-05,0.0283556888
28.9,0.0782100571,0.033223763,0.0339469456,7.1649587e-05,-1.20999362e-05,0.0256831097
29,0.0762126447,0.030011077,0.0339475821,7.16311165e-05,-1.2270544e-05,0.0230619883
29.1,0.074145339,0.0268183703,0.0339481698,7.16153755e-05,-1.24223621e-05,0.020490232
29.2,0.0720115117,0.0236454381,0.0339487084,7.16024166e-05,-1.25557659e-05,0.0179657407
29.3,0.0698144897,0.0204920278,0.0339491978,7.15924187e-05,-1.26711123e-05,0.015486414
29.4,0.0675575573,0.0173578437,0.0339496377,7.15853186e-05,-1.27687406e-05,0.0130501565
29.5,0.0652439572,0.0142425518,0.0339500281,7.15813735e-05,-1.28489718e-05,0.0106548831
29.6,0.0628768929,0.0111457833,0.0339503687,7.15801736e-05,-1.29121094e-05,0.00829852275
29.7,0.0604595301,0.00806713897,0.0339506595,7.15818314e-05,-1.295844e-05,0.00597902209
29.8,0.0579949989,0.00500619234,0.0339509003,7.15867381e-05,-1.29882323e-05,0.00369434811
29.9,0.0554863955,0.00196249271,0.0339510911,7.15944672e-05,-1.3001738e-05,0.00144249033
30,0.0529367844,-0.00106443186,0.0339512318,7.16048963e-05,-1.29991927e-05,-0.000778537413
30.1,0.0503491999,-0.00407507191,0.0339513224,7.16183367e-05,-1.2980815e-05,-0.00297069575
30.2,0.0477266483,-0.00706993423,0.0339513628,7.1634757e-05,-1.29468077e-05,-0.00513591879
30.3,0.0450721097,-0.0100495396,0.0339513532,7.16537045e-05,-1.28973578e-05,-0.00727611357
30.4,0.0423885395,-0.0130144208,0.0339512935,7.16754105e-05,-1.28326366e-05,-0.00939315967
30.5,0.0396788706,-0.0159651206,0.0339511838,7.16999214e-05,-1.27528004e-05,-0.0114889091
30.6,0.0369460151,-0.0189021904,0.0339510242,7.17268635e-05,-1.26579906e-05,-0.0135651866
30.7,0.0341928656,-0.0218261878,0.0339508148,7.17563908e-05,-1.2548334e-05,-0.0156237894
30.8,0.0314222973,-0.0247376762,0.0339505556,7.17882256e-05,-1.24239433e-05,-0.0176664883
30.9,0.0286371692,-0.0276372224,0.0339502469,7.18223921e-05,-1.22849166e-05,-0.0196950273
31,0.0258403259,-0.0305253958,0.0339498888,7.18589588e-05,-1.21313395e-05,-0.0217111251
31.1,0.0230345991,-0.0334027668,0.0339494815,7.18974774e-05,-1.19632833e-05,-0.0237164748
31.2,0.0202228089,-0.0362699057,0.0339490252,7.19382003e-05,-1.17808066e-05,-0.0257127451
31.3,0.0174077651,-0.0391273817,0.0339485201,7.19807674e-05,-1.15839556e-05,-0.0277015808
31.4,0.0145922689,-0.0419757613,0.0339479665,7.20248267e-05,-1.13727629e-05,-0.0296846034
31.5,0.0117791137,-0.0448156075,0.0339473647,7.20709956e-05,-1.11472495e-05,-0.0316634116
31.6,0.00897108674,-0.0476474782,0.0339467149,7.21185114e-05,-1.09074261e-05,-0.0336395819
31.7,0.00617097003,-0.0504719256,0.0339460175,7.21673064e-05,-1.06532884e-05,-0.0356146693
31.8,0.0033815415,-0.0532894946,0.0339452728,7.22175658e-05,-1.03848241e-05,-0.0375902073
31.9,0.000605576127,-0.0561007217,0.0339444812,7.22685753e-05,-1.01020075e-05,-0.0395677084
32,-0.00215415314,-0.0589061338,0.033943643,7.23208099e-05,-9.80480274e-06,-0.0415486645
32.1,-0.00489487437,-0.0617062466,0.0339427586,7.23737861e-05,-9.49316531e-06,-0.0435345466
32.2,-0.00761381584,-0.0645015637,0.0339418284,7.2427098e-05,-9.16703755e-06,-0.0455268046
32.3,-0.0103082051,-0.0672925749,0.033940853,7.24809405e-05,-8.82635367e-06,-0.0475268678
32.4,-0.0129752685,-0.0700797546,0.0339398326,7.25350687e-05,-8.47103848e-06,-0.0495361436
32.5,-0.0156122301,-0.0728635604,0.0339387679,7.25890835e-05,-8.10100761e-06,-0.0515560171
32.6,-0.0182163113,-0.0756444313,0.0339376592,7.26427567e-05,-7.71616649e-06,-0.0535878507
32.7,-0.0207847306,-0.0784227859,0.0339365072,7.26961047e-05,-7.31641349e-06,-0.0556329824
32.8,-0.0233147026,-0.0811990208,0.0339353123,7.27487605e-05,-6.901639e-06,-0.0576927248
32.9,-0.0258034381,-0.0839735078,0.033934075,7.28003361e-05,-6.47172507e-06,-0.0597683632
33,-0.0282481438,-0.0867465926,0.033932796,7.28508455e-05,-6.02654654e-06,-0.061861154
33.1,-0.030646022,-0.089518592,0.0339314758,7.28998783e-05,-5.56597336e-06,-0.0639723221
33.2,-0.032994271,-0.0922897915,0.033930115,7.29470102e-05,-5.08986679e-06,-0.0661030585
33.3,-0.035290085,-0.0950604428,0.0339287143,7.2992218e-05,-4.59808432e-06,-0.0682545172
33.4,-0.0375306545,-0.0978307609,0.0339272742,7.30350364e-05,-4.09047859e-06,-0.0704278119
33.5,-0.0397131668,-0.100600921,0.0339257954,7.30750497e-05,-3.56689709e-06,-0.0726240121
33.6,-0.0418348067,-0.103371056,0.0339242785,7.31119979e-05,-3.02718381e-06,-0.0748441389
33.7,-0.0438927575,-0.106141253,0.0339227244,7.31456704e-05,-2.471181e-06,-0.0770891602
33.8,-0.045884202,-0.108911548,0.0339211335,7.31754006e-05,-1.89872922e-06,-0.0793599855
33.9,-0.0478063242,-0.111681924,0.0339195067,7.32009765e-05,-1.30966594e-06,-0.0816574601
34,-0.0496563104,-0.114452309,0.0339178447,7.32219332e-05,-7.03832022e-07,-0.0839823585
34.1,-0.0514313519,-0.117222567,0.0339161482,7.32378479e-05,-8.10662654e-08,-0.086335378
34.2,-0.0531286467,-0.119992498,0.0339144179,7.32482625e-05,5.58786761e-07,-0.0887171309
34.3,-0.0547454028,-0.12276183,0.0339126546,7.32527035e-05,1.21588224e-06,-0.091128136
34.4,-0.0562788406,-0.125530217,0.0339108591,7.32506654e-05,1.89036671e-06,-0.0935688105
34.5,-0.0577261971,-0.128297234,0.0339090322,7.32416641e-05,2.58238382e-06,-0.09603946
34.6,-0.0590847295,-0.13106237,0.0339071747,7.32250275e-05,3.2920653e-06,-0.0985402686
34.7,-0.0603517201,-0.133825024,0.0339052874,7.32002847e-05,4.01953823e-06,-0.101071288
34.8,-0.0615244807,-0.136584499,0.033903371,7.3167008e-05,4.7649114e-06,-0.103632427
34.9,-0.062600359,-0.139339997,0.0339014265,7.31242592e-05,5.5282853e-06,-0.106223438
35,-0.0635767445,-0.142090616,0.0338994547,7.30717589e-05,6.30974204e-06,-0.108843905
35.1,-0.0644510754,-0.144835337,0.0338974563,7.30085586e-05,7.10934572e-06,-0.111493232
35.2,-0.0652208466,-0.147573027,0.0338954324,7.29339933e-05,7.9271432e-06,-0.114170625
35.3,-0.0658836178,-0.150302428,0.0338933837,7.28475898e-05,8.7631558e-06,-0.116875084
35.4,-0.0664370226,-0.153022153,0.0338913112,7.27484774e-05,9.6173795e-06,-0.119605384
35.5,-0.066878779,-0.155730682,0.0338892156,7.26358566e-05,1.0489784e-05,-0.122360062
35.6,-0.0672066997,-0.158426355,0.033887098,7.2508911e-05,1.13803083e-05,-0.125137401
35.7,-0.0674187039,-0.161107366,0.0338849591,7.23670909e-05,1.2288858e-05,-0.12793542
35.8,-0.0675128301,-0.163771763,0.0338827999,7.22094647e-05,1.32152987e-05,-0.130751852
35.9,-0.0674872492,-0.166417443,0.0338806214,7.20350672e-05,1.41594617e-05,-0.133584137
36,-0.0673402788,-0.169042143,0.0338784243,7.18433505e-05,1.51211321e-05,-0.136429407
36.1,-0.0670703987,-0.171643447,0.0338762097,7.16332242e-05,1.61000493e-05,-0.139284472
36.2,-0.0666762659,-0.174218777,0.0338739784,7.14037056e-05,1.70959076e-05,-0.142145811
36.3,-0.0661567321,-0.176765394,0.0338717314,7.11542633e-05,1.81083478e-05,-0.145009562
36.4,-0.0655108606,-0.179280403,0.0338694695,7.08839828e-05,1.91369519e-05,-0.147871517
36.5,-0.0647379439,-0.181760747,0.0338671938,7.05918391e-05,2.01812482e-05,-0.150727112
36.6,-0.0638375225,-0.184203217,0.0338649051,7.02768608e-05,2.12407045e-05,-0.153571433
36.7,-0.0628094029,-0.186604453,0.0338626044,6.9938404e-05,2.23147277e-05,-0.15639921
36.8,-0.0616536769,-0.188960952,0.0338602926,6.95756957e-05,2.34026537e-05,-0.159204824
36.9,-0.0603707396,-0.191269073,0.0338579706,6.918786e-05,2.45037553e-05,-0.161982316
37,-0.0589613082,-0.193525053,0.0338556393,6.87739129e-05,2.56172345e-05,-0.164725399
37.1,-0.0574264398,-0.195725014,0.0338532998,6.83331895e-05,2.67422297e-05,-0.167427476
37.2,-0.0557675483,-0.197864976,0.0338509528,6.78652314e-05,2.78778008e-05,-0.170081662
37.3,-0.0539864203,-0.199940878,0.0338485994,6.7369072e-05,2.90229408e-05,-0.172680812
37.4,-0.0520852295,-0.201948592,0.0338462405,6.68443077e-05,3.0176573e-05,-0.175217552
37.5,-0.0500665499,-0.203883947,0.0338438769,6.62902907e-05,3.13375492e-05,-0.177684319
37.6,-0.0479333664,-0.205742746,0.0338415096,6.57063898e-05,3.25046586e-05,-0.180073403
37.7,-0.0456890826,-0.207520795,0.0338391396,6.50925755e-05,3.36766235e-05,-0.182376998
37.8,-0.0433375273,-0.209213925,0.0338367677,6.44484078e-05,3.48521002e-05,-0.184587254
37.9,-0.0408829566,-0.210818022,0.0338343948,6.37734472e-05,3.60296946e-05,-0.186696333
38,-0.0383300529,-0.212329055,0.0338320219,6.30678258e-05,3.72079581e-05,-0.188696478
38.1,-0.0356839214,-0.213743104,0.0338296498,6.23315219e-05,3.8385393e-05,-0.19058007
38.2,-0.0329500812,-0.215056393,0.0338272796,6.15644057e-05,3.95604636e-05,-0.192339702
38.3,-0.0301344537,-0.216265315,0.033824912,6.07668139e-05,4.07316037e-05,-0.193968249
38.4,-0.0272433463,-0.217366469,0.033822548,5.99391613e-05,4.18972173e-05,-0.195458932
38.5,-0.0242834325,-0.218356685,0.0338201884,5.90817824e-05,4.30556939e-05,-0.196805396
38.6,-0.0212617271,-0.219233054,0.0338178342,5.81951956e-05,4.42054154e-05,-0.198001768
38.7,-0.0181855587,-0.219992953,0.0338154863,5.72803699e-05,4.53447656e-05,-0.19904273
38.8,-0.015062537,-0.220634072,0.0338131456,5.63377801e-05,4.64721346e-05,-0.199923576
38.9,-0.0119005183,-0.221154437,0.0338108129,5.53682155e-05,4.75859468e-05,-0.200640262
39,-0.00870756635,-0.221552426,0.0338084891,5.43731715e-05,4.8684648e-05,-0.201189461
39.1,-0.00549191172,-0.221826789,0.0338061752,5.33536097e-05,4.9766725e-05,-0.201568599
39.2,-0.00226190818,-0.221976657,0.033803872,5.2310643e-05,5.08307188e-05,-0.201775886
39.3,0.0009740121,-0.222001555,0.0338015803,5.12455409e-05,5.18752328e-05,-0.20181034
39.4,0.00420738449,-0.221901404,0.0337993011,5.01601351e-05,5.28989373e-05,-0.201671797
39.5,0.00742975836,-0.221676522,0.0337970352,4.90555269e-05,5.39005749e-05,-0.201360914
39.6,0.0106327432,-0.221327621,0.0337947836,4.79333321e-05,5.48789855e-05,-0.200879161
39.7,0.0138080543,-0.220855801,0.033792547,4.67953998e-05,5.58330879e-05,-0.200228805
39.8,0.0169475562,-0.220262538,0.0337903263,4.56432442e-05,5.6761905e-05,-0.199412876
39.9,0.0200433054,-0.219549668,0.0337881223,4.44786082e-05,5.76645566e-05,-0.198435139
40,0.0230875894,-0.21871937,0.033785936,4.33032496e-05,5.85402724e-05,-0.19730004
40.1,0.0260729639,-0.217774144,0.0337837682,4.21187789e-05,5.93883844e-05,-0.196012664
40.2,0.0289922854,-0.21671679,0.0337816196,4.09270691e-05,6.02083413e-05,-0.194578668
40.3,0.0318387414,-0.215550375,0.0337794912,3.97298684e-05,6.09996907e-05,-0.193004223
40.4,0.0346058762,-0.214278214,0.0337773836,3.8528718e-05,6.17620989e-05,-0.191295948
40.5,0.0372876125,-0.212903835,0.0337752979,3.73256089e-05,6.24953311e-05,-0.189460839
40.6,0.0398782693,-0.211430949,0.0337732346,3.612192e-05,6.31992592e-05,-0.187506199
40.7,0.0423725755,-0.209863423,0.0337711946,3.49192566e-05,6.38738583e-05,-0.18543957
40.8,0.0447656795,-0.208205248,0.0337691787,3.37194239e-05,6.45191971e-05,-0.183268663
40.9,0.0470531553,-0.206460508,0.0337671876,3.25236534e-05,6.51354339e-05,-0.181001291
41,0.0492310042,-0.204633354,0.0337652221,3.13333667e-05,6.57228199e-05,-0.178645306
41.1,0.0512956536,-0.202727972,0.0337632829,3.01501818e-05,6.628168e-05,-0.17620854
41.2,0.0532439528,-0.200748562,0.0337613707,2.89750971e-05,6.68124154e-05,-0.173698745
41.3,0.0550731656,-0.198699307,0.0337594862,2.78094075e-05,6.73154977e-05,-0.17112355
41.4,0.05678096,-0.196584356,0.0337576301,2.66541611e-05,6.77914575e-05,-0.168490407
41.5,0.0583653972,-0.194407798,0.033755803,2.55106323e-05,6.82408825e-05,-0.165806558
41.6,0.0598249165,-0.192173648,0.0337540057,2.43797439e-05,6.86644023e-05,-0.163078995
41.7,0.0611583209,-0.189885825,0.0337522386,2.32619631e-05,6.90626972e-05,-0.160314433
41.8,0.06236476,-0.18754814,0.0337505025,2.2158685e-05,6.94364811e-05,-0.157519283
41.9,0.0634437125,-0.185164285,0.033748798,2.10703067e-05,6.97864914e-05,-0.154699639
42,0.0643949682,-0.182737818,0.0337471255,1.99975028e-05,7.01135001e-05,-0.151861254
42.1,0.0652186091,-0.180272157,0.0337454857,1.89411751e-05,7.04182879e-05,-0.149009539
42.2,0.0659149911,-0.177770572,0.0337438791,1.79013916e-05,7.07016552e-05,-0.14614955
42.3,0.0664847252,-0.17523618,0.0337423063,1.68789703e-05,7.09644115e-05,-0.14328599
42.4,0.066928659,-0.172671942,0.0337407676,1.58741223e-05,7.12073672e-05,-0.140423209
42.5,0.0672478586,-0.170080659,0.0337392637,1.48871919e-05,7.14313391e-05,-0.137565205
42.6,0.0674435916,-0.167464972,0.0337377949,1.39186385e-05,7.16371359e-05,-0.134715635
42.7,0.0675173095,-0.164827363,0.0337363617,1.29683879e-05,7.1825564e-05,-0.131877818
42.8,0.067470632,-0.162170154,0.0337349646,1.20369e-05,7.19974206e-05,-0.12905475
42.9,0.0673053316,-0.159495512,0.0337336039,1.11243124e-05,7.21534888e-05,-0.126249112
43,0.0670233188,-0.15680545,0.03373228,1.02304673e-05,7.22945412e-05,-0.123463286
43.1,0.0666266283,-0.154101831,0.0337309932,9.35567571e-06,7.24213352e-05,-0.120699365
43.2,0.0661174065,-0.151386371,0.033729744,8.50001824e-06,7.25346083e-05,-0.11795917
43.3,0.065497899,-0.148660646,0.0337285327,7.66303431e-06,7.26350827e-05,-0.115244262
43.4,0.0647704399,-0.145926096,0.0337273595,6.84528419e-06,7.2723463e-05,-0.11255596
43.5,0.0639374412,-0.143184029,0.0337262248,6.04638672e-06,7.28004264e-05,-0.109895352
43.6,0.0630013833,-0.140435629,0.0337251287,5.26617689e-06,7.28666395e-05,-0.107263312
43.7,0.0619648063,-0.137681956,0.0337240716,4.50483068e-06,7.29227392e-05,-0.104660513
43.8,0.0608303023,-0.134923961,0.0337230537,3.76201055e-06,7.29693467e-05,-0.102087441
43.9,0.0596005077,-0.132162482,0.0337220752,3.0378015e-06,7.30070577e-05,-0.0995444099
44,0.058278097,-0.129398255,0.0337211363,2.33181429e-06,7.30364488e-05,-0.0970315708
44.1,0.0568657769,-0.12663192,0.0337202371,1.64386155e-06,7.30580757e-05,-0.094548928
44.2,0.0553662808,-0.12386402,0.0337193779,9.74152517e-07,7.30724726e-05,-0.0920963486
44.3,0.0537823642,-0.121095017,0.0337185587,3.2225943e-07,7.30801493e-05,-0.0896735742
44.4,0.0521168004,-0.118325287,0.0337177796,-3.12140957e-07,7.30816013e-05,-0.0872802309
44.5,0.050372377,-0.11555513,0.0337170407,-9.28784406e-07,7.30772994e-05,-0.0849158391
44.6,0.0485518922,-0.112784774,0.0337163422,-1.52827975e-06,7.30676962e-05,-0.0825798228
44.7,0.0466581526,-0.11001438,0.0337156841,-2.11075926e-06,7.30532275e-05,-0.0802715178
44.8,0.0446939698,-0.107244047,0.0337150663,-2.67619069e-06,7.30343086e-05,-0.0779901792
44.9,0.0426621594,-0.104473811,0.033714489,-3.22486866e-06,7.30113369e-05,-0.0757349892
45,0.0405655382,-0.101703658,0.0337139522,-3.75715004e-06,7.29846939e-05,-0.0735050631
45.1,0.0384069233,-0.0989335204,0.0337134557,-4.27280681e-06,7.29547445e-05,-0.0712994557
45.2,0.0361891307,-0.0961632828,0.0337129996,-4.77224415e-06,7.29218347e-05,-0.0691171664
45.3,0.0339149739,-0.0933927868,0.0337125839,-5.25593104e-06,7.28863e-05,-0.0669571444
45.4,0.031587264,-0.0906218328,0.0337122083,-5.72342265e-06,7.28484586e-05,-0.0648182933
45.5,0.0292088082,-0.0878501834,0.033711873,-6.17538764e-06,7.28086136e-05,-0.0626994745
45.6,0.0267824099,-0.0850775663,0.0337115777,-6.61177872e-06,7.27670581e-05,-0.0605995115
45.7,0.0243108684,-0.0823036766,0.0337113223,-7.03262175e-06,7.27240682e-05,-0.0585171925
45.8,0.0217969788,-0.0795281802,0.0337111066,-7.4383273e-06,7.2679911e-05,-0.0564512733
45.9,0.0192435319,-0.0767507151,0.0337109306,-7.82887776e-06,7.26348401e-05,-0.05440048
46,0.0166533144,-0.0739708944,0.033710794,-8.2043069e-06,7.25890989e-05,-0.0523635105
46.1,0.0140291096,-0.0711883082,0.0337106967,-8.56481505e-06,7.25429184e-05,-0.0503390367
46.2,0.0113736971,-0.0684025252,0.0337106383,-8.91066181e-06,7.24965216e-05,-0.048325706
46.3,0.00868985367,-0.065613095,0.0337106188,-9.24164873e-06,7.24501205e-05,-0.0463221422
46.4,0.00598035395,-0.0628195498,0.0337106377,-9.55805066e-06,7.24039175e-05,-0.0443269464
46.5,0.00324797076,-0.0600214057,0.033710695,-9.85989289e-06,7.23581071e-05,-0.0423386982
46.6,0.000495476012,-0.0572181645,0.0337107902,-1.014725e-05,7.23128744e-05,-0.0403559559
46.7,-0.00227435856,-0.0544093149,0.0337109231,-1.04201887e-05,7.22683971e-05,-0.0383772567
46.8,-0.0050587605,-0.0515943345,0.0337110934,-1.06786924e-05,7.22248444e-05,-0.0364011171
46.9,-0.00785495578,-0.0487726905,0.0337113007,-1.09230226e-05,7.21823787e-05,-0.0344260329
47,-0.0106601677,-0.045943841,0.0337115447,-1.11527657e-05,7.21411551e-05,-0.0324504788
47.1,-0.0134716161,-0.0431072368,0.0337118251,-1.13681758e-05,7.21013201e-05,-0.0304729086
47.2,-0.016286516,-0.040262322,0.0337121414,-1.15695492e-05,7.20630162e-05,-0.0284917544
47.3,-0.0191020764,-0.0374085355,0.0337124932,-1.17562774e-05,7.20263776e-05,-0.0265054262
47.4,-0.0219154996,-0.034545312,0.0337128803,-1.19287197e-05,7.1991532e-05,-0.0245123118
47.5,-0.0247239792,-0.0316720833,0.033713302,-1.20867328e-05,7.1958602e-05,-0.0225107758
47.6,-0.0275246993,-0.0287882794,0.0337137581,-1.22302927e-05,7.19277028e-05,-0.020499159
47.7,-0.0303148332,-0.0258933298,0.0337142479,-1.23593287e-05,7.18989446e-05,-0.0184757781
47.8,-0.0330915416,-0.0229866645,0.0337147712,-1.24737545e-05,7.18724309e-05,-0.0164389247
47.9,-0.0358519712,-0.0200677155,0.0337153274,-1.25735187e-05,7.18482596e-05,-0.0143868649
48,-0.0385932536,-0.0171359179,0.0337159159,-1.26583593e-05,7.1826522e-05,-0.0123178387
48.1,-0.0413125033,-0.0141907117,0.0337165364,-1.27283132e-05,7.18073037e-05,-0.0102300594
48.2,-0.0440068161,-0.0112315427,0.0337171883,-1.27832045e-05,7.17906837e-05,-0.00812171317
48.3,-0.0466732678,-0.00825786461,0.033717871,-1.28228978e-05,7.17767351e-05,-0.00599095901
48.4,-0.0493089119,-0.00526914037,0.033718584,-1.28472198e-05,7.17655237e-05,-0.00383592827
48.5,-0.0519107784,-0.00226484423,0.0337193267,-1.28560213e-05,7.17571091e-05,-0.00165472481
48.6,-0.0544758718,0.000755536453,0.0337200987,-1.28490031e-05,7.17515432e-05,0.000554574741
48.7,-0.057001169,0.00379249895,0.0337208992,-1.28259161e-05,7.17488708e-05,0.00279392055
48.8,-0.0594836179,0.0068465229,0.0337217278,-1.27868003e-05,7.17491286e-05,0.00506528876
48.9,-0.061920135,0.00991806779,0.0337225838,-1.27312709e-05,7.17523451e-05,0.00737068034
49,-0.0643076041,0.0130075701,0.0337234666,-1.26589478e-05,7.17585398e-05,0.00971211957
49.1,-0.0666428738,0.0161154404,0.0337243756,-1.25697612e-05,7.17677228e-05,0.012091652
49.2,-0.0689227558,0.0192420599,0.0337253101,-1.246317e-05,7.17798944e-05,0.014511342
49.3,-0.0711440234,0.0223877769,0.0337262695,-1.23392337e-05,7.17950438e-05,0.0169732695
49.4,-0.0733034089,0.0255529029,0.0337272532,-1.2197304e-05,7.18131485e-05,0.0194795264
49.5,-0.0753976028,0.0287377084,0.0337282605,-1.20370974e-05,7.18341743e-05,0.0220322118
49.6,-0.0774232511,0.0319424176,0.0337292908,-1.18583643e-05,7.18580729e-05,0.0246334265
49.7,-0.0793769546,0.0351672042,0.0337303432,-1.16606938e-05,7.18847821e-05,0.0272852671
49.8,-0.0812552671,0.0384121849,0.0337314173,-1.14437515e-05,7.19142236e-05,0.029989818
49.9,-0.0830546943,0.0416774139,0.0337325123,-1.12069563e-05,7.1946303e-05,0.032749143
50,-0.0847716927,0.0449628759,0.0337336274,-1.09500985e-05,7.19809076e-05,0.0355652753
50.1,-0.0864026693,0.0482684792,0.033734762,-1.06725241e-05,7.20179054e-05,0.0384402063
50.2,-0.0879439808,0.0515940478,0.0337359154,-1.03740023e-05,7.20571435e-05,0.0413758721
50.3,-0.0893919343,0.0549393128,0.0337370868,-1.00538614e-05,7.20984461e-05,0.0443741392
50.4,-0.0907427875,0.0583039035,0.0337382756,-9.71179017e-06,7.21416141e-05,0.0474367875
50.5,-0.0919927501,0.0616873378,0.0337394809,-9.34729938e-06,7.21864208e-05,0.0505654916
50.6,-0.0931379856,0.0650890113,0.0337407022,-8.95972998e-06,7.22326132e-05,0.0537618
50.7,-0.0941746143,0.0685081862,0.0337419385,-8.54876985e-06,7.22799072e-05,0.0570271112
50.8,-0.0950987164,0.0719439794,0.0337431892,-8.11373529e-06,7.23279873e-05,0.0603626482
50.9,-0.0959063373,0.07539535,0.0337444536,-7.65413851e-06,7.23765037e-05,0.0637694294
51,-0.0965934927,0.0788610852,0.0337457309,-7.1695011e-06,7.24250705e-05,0.0672482371
51.1,-0.0971561766,0.0823397868,0.0337470203,-6.65955249e-06,7.24732619e-05,0.0707995829
51.2,-0.0975903691,0.0858298558,0.0337483212,-6.12318671e-06,7.25206109e-05,0.0744236699
51.3,-0.0978920476,0.0893294772,0.0337496326,-5.56017393e-06,7.25666119e-05,0.078120352
51.4,-0.0980571983,0.0928366039,0.033750954,-4.9703913e-06,7.26107066e-05,0.0818890901
51.5,-0.0980818311,0.0963489401,0.0337522844,-4.35293681e-06,7.26522924e-05,0.0857289044
51.6,-0.0979619955,0.0998639247,0.0337536233,-3.70727584e-06,7.26907167e-05,0.0896383255
51.7,-0.0976938001,0.103378714,0.0337549698,-3.03321327e-06,7.27252764e-05,0.0936153407
51.8,-0.097273434,0.106890167,0.0337563231,-2.33036118e-06,7.27552106e-05,0.0976573399
51.9,-0.0966971911,0.110394824,0.0337576826,-1.59803744e-06,7.27797074e-05,0.101761058
52,-0.0959614975,0.113888897,0.0337590474,-8.36241009e-07,7.27978974e-05,0.105922518
52.1,-0.0950629426,0.117368249,0.0337604169,-4.46499061e-08,7.28088527e-05,0.110136972
52.2,-0.0939983119,0.120828387,0.0337617903,7.77057367e-07,7.28115901e-05,0.114398841
52.3,-0.0927646251,0.124264444,0.0337631668,1.62898126e-06,7.28050696e-05,0.118701664
52.4,-0.0913591756,0.127671173,0.0337645457,2.51123345e-06,7.27881965e-05,0.123038041
52.5,-0.0897795748,0.131042942,0.0337659263,3.42363579e-06,7.27598229e-05,0.127399583
52.6,-0.0880237983,0.134373728,0.0337673079,4.36617413e-06,7.27187489e-05,0.131776878
52.7,-0.0860902354,0.13765712,0.0337686897,5.33881981e-06,7.2663733e-05,0.136159449
52.8,-0.0839777414,0.140886326,0.0337700711,6.34080806e-06,7.25934914e-05,0.140535739
52.9,-0.0816856909,0.144054184,0.0337714513,7.37178903e-06,7.25067022e-05,0.144893097
53,-0.0792140333,0.147153177,0.0337728297,8.43160566e-06,7.24020243e-05,0.149217787
53.1,-0.0765633482,0.150175462,0.0337742056,9.51905511e-06,7.22781007e-05,0.153495015
53.2,-0.0737349006,0.1531129,0.0337755783,1.06332937e-05,7.21335623e-05,0.157708969
53.3,-0.0707306946,0.155957093,0.0337769471,1.17736005e-05,7.19670546e-05,0.16184289
53.4,-0.0675535237,0.158699434,0.0337783114,1.29384185e-05,7.17772417e-05,0.165879163
53.5,-0.064207018,0.161331161,0.0337796705,1.41266019e-05,7.15628219e-05,0.169799435
53.6,-0.0606956846,0.163843423,0.0337810238,1.53366317e-05,7.13225515e-05,0.173584759
53.7,-0.0570249413,0.166227346,0.0337823707,1.65666324e-05,7.10552522e-05,0.177215764
53.8,-0.0532011422,0.168474119,0.0337837106,1.78150954e-05,7.07598371e-05,0.180672852
53.9,-0.0492315916,0.170575071,0.0337850428,1.90798587e-05,7.04353297e-05,0.183936415
54,-0.0451245474,0.172521766,0.0337863667,2.03586913e-05,7.0080874e-05,0.18698708
54.1,-0.0408892117,0.174306096,0.0337876817,2.16494291e-05,6.96957615e-05,0.18980596
54.2,-0.036535706,0.175920374,0.0337889873,2.29498474e-05,6.92794461e-05,0.192374927
54.3,-0.0320750338,0.177357432,0.0337902828,2.42571831e-05,6.88315629e-05,0.194676884
54.4,-0.0275190268,0.178610714,0.0337915678,2.55688583e-05,6.83519308e-05,0.196696037
54.5,-0.022880277,0.179674366,0.0337928415,2.68825191e-05,6.78405828e-05,0.19841816
54.6,-0.018172054,0.180543318,0.0337941034,2.81952794e-05,6.72977629e-05,0.19983084
54.7,-0.0134082097,0.181213357,0.0337953529,2.95044947e-05,6.67239357e-05,0.200923702
54.8,-0.0086030708,0.18168119,0.0337965896,3.08074375e-05,6.61197886e-05,0.201688599
54.9,-0.00377132136,0.181944497,0.0337978128,3.21015006e-05,6.54862314e-05,0.202119767
55,0.00107212186,0.182001962,0.0337990219,3.33838549e-05,6.48243908e-05,0.202213932
55.1,0.00591223934,0.181853297,0.0338002164,3.46522934e-05,6.41355991e-05,0.201970379
55.2,0.0107340408,0.181499247,0.0338013957,3.59042172e-05,6.34213948e-05,0.201390958
55.3,0.0155226966,0.180941575,0.0338025593,3.7137166e-05,6.26834843e-05,0.200480058
55.4,0.020263666,0.180183037,0.0338037066,3.83492448e-05,6.19237462e-05,0.199244512
55.5,0.0249428184,0.179227341,0.0338048371,3.95384069e-05,6.11441968e-05,0.197693476
55.6,0.029546547,0.178079086,0.0338059502,4.07026464e-05,6.0346974e-05,0.195838252
55.7,0.0340618711,0.176743701,0.0338070454,4.18400277e-05,5.95343002e-05,0.193692085
55.8,0.0384765258,0.17522736,0.0338081221,4.29498461e-05,5.87084724e-05,0.191269925
55.9,0.0427790385,0.173536902,0.0338091799,4.40303471e-05,5.787184e-05,0.188588177
56,0.0469587902,0.171679735,0.0338102182,4.50801511e-05,5.70267526e-05,0.185664429
56.1,0.0510060626,0.169663745,0.0338112365,4.60990649e-05,5.6175566e-05,0.182517176
56.2,0.0549120695,0.167497198,0.0338122343,4.70857496e-05,5.53206079e-05,0.179165555
56.3,0.0586689743,0.165188643,0.0338132111,4.80401224e-05,5.44641484e-05,0.175629073
56.4,0.0622698946,0.162746825,0.0338141665,4.89616668e-05,5.36084042e-05,0.171927362
56.5,0.065708893,0.160180594,0.0338151,4.98499986e-05,5.27554918e-05,0.168079946
56.6,0.0689809584,0.157498821,0.0338160112,5.07056355e-05,5.19074441e-05,0.164106029
56.7,0.0720819765,0.154710328,0.0338168997,5.15281588e-05,5.10661794e-05,0.160024317
56.8,0.0750086929,0.151823815,0.033817765,5.23180506e-05,5.02334964e-05,0.155852852
56.9,0.0777586694,0.148847801,0.0338186068,5.30757799e-05,4.94110751e-05,0.151608882
57,0.0803302356,0.145790578,0.0338194247,5.38016731e-05,4.86004648e-05,0.147308757
57.1,0.0827224364,0.142660156,0.0338202183,5.44963352e-05,4.78030849e-05,0.142967845
57.2,0.0849349782,0.139464238,0.0338209874,5.51604151e-05,4.70202246e-05,0.138600479
57.3,0.0869681726,0.136210187,0.0338217315,5.57945804e-05,4.62530443e-05,0.134219913
57.4,0.0888228816,0.132905002,0.0338224505,5.63997789e-05,4.55025788e-05,0.129838316
57.5,0.0905004629,0.129555309,0.033823144,5.69766116e-05,4.47697425e-05,0.125466764
57.6,0.0920027163,0.126167346,0.0338238117,5.75261234e-05,4.40553291e-05,0.12111526
57.7,0.0933318335,0.122746963,0.0338244535,5.80490574e-05,4.33600269e-05,0.116792759
57.8,0.0944903493,0.119299622,0.0338250691,5.85461449e-05,4.26844114e-05,0.112507204
57.9,0.0954810967,0.115830401,0.0338256583,5.9018561e-05,4.20289656e-05,0.108265576
58,0.0963071644,0.112343999,0.0338262209,5.94671554e-05,4.13940791e-05,0.104073939
58.1,0.0969718581,0.108844751,0.0338267568,5.98927192e-05,4.07800586e-05,0.0999374949
58.2,0.0974786647,0.105336638,0.0338272657,6.02961194e-05,4.01871299e-05,0.0958606446
58.3,0.09783122,0.101823299,0.0338277477,6.06783808e-05,3.96154512e-05,0.0918470429
58.4,0.0980332798,0.0983080526,0.0338282024,6.10401986e-05,3.90651152e-05,0.0878996577
58.5,0.0980886935,0.0947939052,0.0338286299,6.13824033e-05,3.85361565e-05,0.0840208278
58.6,0.0980013812,0.0912835735,0.03382903,6.17059492e-05,3.80285586e-05,0.0802123188
58.7,0.097775313,0.0877794992,0.0338294027,6.20114755e-05,3.75422599e-05,0.076475377
58.8,0.0974144914,0.084283866,0.0338297479,6.2299693e-05,3.70771563e-05,0.0728107812
58.9,0.0969229359,0.0807986161,0.0338300656,6.25716339e-05,3.66331105e-05,0.0692188911
59,0.096304669,0.0773254671,0.0338303558,6.28277137e-05,3.62099545e-05,0.0656996928
59.1,0.0955637059,0.0738659272,0.0338306184,6.30684986e-05,3.58074919e-05,0.062252842
59.2,0.0947040438,0.0704213107,0.0338308535,6.32948474e-05,3.54255052e-05,0.0588777027
59.3,0.0937296547,0.0669927527,0.033831061,6.35074792e-05,3.50637593e-05,0.055573384
59.4,0.0926444784,0.0635812226,0.0338312411,6.37067416e-05,3.47220034e-05,0.0523387734
59.5,0.0914524177,0.0601875378,0.0338313937,6.38930729e-05,3.43999729e-05,0.0491725667
59.6,0.0901573333,0.0568123753,0.033831519,6.40671982e-05,3.40973948e-05,0.046073296
59.7,0.0887630416,0.0534562843,0.033831617,6.42297822e-05,3.38139894e-05,0.0430393542
59.8,0.0872733119,0.0501196964,0.0338316878,6.4380817e-05,3.35494723e-05,0.0400690178
59.9,0.0856918647,0.0468029359,0.0338317316,6.45210851e-05,3.33035543e-05,0.0371604662
60,0.0840223711,0.0435062296,0.0338317483,6.46509574e-05,3.30759477e-05,0.0343118002
60.1,0.082268452,0.0402297151,0.0338317383,6.47706092e-05,3.28663628e-05,0.0315210575
60.2,0.0804336785,0.0369734494,0.0338317016,6.48808023e-05,3.26745133e-05,0.0287862268
60.3,0.0785215722,0.0337374163,0.0338316384,6.49813417e-05,3.25001151e-05,0.02610526
60.4,0.076535606,0.030521533,0.0338315488,6.50729003e-05,3.23428874e-05,0.023476083
60.5,0.0744792051,0.0273256569,0.0338314332,6.51557196e-05,3.22025555e-05,0.020896605
60.6,0.0723557486,0.0241495913,0.0338312915,6.52298767e-05,3.20788493e-05,0.0183647267
60.7,0.0701685705,0.0209930908,0.0338311242,6.52959621e-05,3.19715053e-05,0.0158783473
60.8,0.0679209617,0.0178558664,0.0338309314,6.53538777e-05,3.18802668e-05,0.0134353704
60.9,0.0656161714,0.0147375897,0.0338307133,6.54038801e-05,3.18048839e-05,0.0110337087
61,0.0632574092,0.0116378974,0.0338304702,6.54462614e-05,3.17451148e-05,0.00867128877
61.1,0.0608478467,0.0085563948,0.0338302024,6.54811443e-05,3.17007252e-05,0.00634605431
61.2,0.0583906196,0.0054926595,0.0338299102,6.55087413e-05,3.16714889e-05,0.00405596885
61.3,0.0558888293,0.00244624448,0.0338295938,6.55289713e-05,3.16571882e-05,0.00179901821
61.4,0.0533455453,-0.000583318973,0.0338292535,6.55423002e-05,3.16576135e-05,-0.000426787749
61.5,0.0507638066,-0.00359651862,0.0338288897,6.55485059e-05,3.16725637e-05,-0.0026234138
61.6,0.0481466237,-0.00659385881,0.0338285026,6.55477385e-05,3.17018462e-05,-0.00479279832
61.7,0.0454969808,-0.00957585824,0.0338280927,6.55401213e-05,3.17452767e-05,-0.00693685268
61.8,0.0428178372,-0.0125430479,0.0338276602,6.55258605e-05,3.18026795e-05,-0.00905746086
61.9,0.0401121292,-0.0154959691,0.0338272055,6.55047596e-05,3.18738868e-05,-0.0111564793
62,0.0373827721,-0.0184351719,0.033826729,6.54767774e-05,3.19587396e-05,-0.0132357369
62.1,0.0346326615,-0.0213612133,0.0338262311,6.54424275e-05,3.20570862e-05,-0.0152970355
62.2,0.0318646752,-0.0242746555,0.0338257121,6.54010614e-05,3.21687832e-05,-0.0173421498
62.3,0.0290816748,-0.0271760651,0.0338251725,6.53530341e-05,3.22936951e-05,-0.0193728283
62.4,0.0262865071,-0.030066011,0.0338246126,6.52983454e-05,3.24316934e-05,-0.0213907935
62.5,0.0234820056,-0.0329450636,0.0338240329,6.52369037e-05,3.25826571e-05,-0.0233977427
62.6,0.0206709922,-0.0358137934,0.0338234337,6.51684048e-05,3.2746472e-05,-0.0253953483
62.7,0.0178562784,-0.0386727698,0.0338228156,6.50929934e-05,3.29230319e-05,-0.0273852589
62.8,0.0150406665,-0.0415225597,0.033822179,6.50108511e-05,3.31122352e-05,-0.0293690997
62.9,0.0122269511,-0.0443637268,0.0338215242,6.4921486e-05,3.33139876e-05,-0.031348473
63,0.00941792047,-0.0471968299,0.0338208519,6.48248698e-05,3.35282007e-05,-0.0333249588
63.1,0.00661635722,-0.0500224223,0.0338201623,6.4720993e-05,3.37547917e-05,-0.0353001155
63.2,0.00382503993,-0.05284105,0.0338194561,6.46096526e-05,3.39936828e-05,-0.0372754799
63.3,0.00104674395,-0.0556532509,0.0338187337,6.44909045e-05,3.42448012e-05,-0.0392525679
63.4,-0.00171575748,-0.0584595535,0.0338179956,6.43643028e-05,3.45080777e-05,-0.0412328748
63.5,-0.00445969235,-0.0612604756,0.0338172422,6.42298228e-05,3.47834494e-05,-0.0432178746
63.6,-0.00718228897,-0.0640565226,0.0338164741,6.4087432e-05,3.50708542e-05,-0.045209021
63.7,-0.00988077507,-0.0668481867,0.0338156918,6.39366345e-05,3.53702353e-05,-0.0472077463
63.8,-0.0125523772,-0.0696359448,0.0338148958,6.37774635e-05,3.56815378e-05,-0.0492154615
63.9,-0.0151943198,-0.0724202573,0.0338140867,6.36094747e-05,3.60047093e-05,-0.0512335554
64,-0.0178038248,-0.0752015663,0.0338132648,6.34326936e-05,3.63396993e-05,-0.0532633939
64.1,-0.0203781112,-0.0779802939,0.0338124308,6.32469044e-05,3.66864569e-05,-0.0553063192
64.2,-0.0229143941,-0.08075684,0.0338115853,6.30514761e-05,3.70449332e-05,-0.0573636478
64.3,-0.0254098851,-0.0835315808,0.0338107286,6.28463635e-05,3.74150798e-05,-0.0594366696
64.4,-0.0278617915,-0.0863048662,0.0338098614,6.263157e-05,3.77968454e-05,-0.0615266458
64.5,-0.0302673163,-0.0890770178,0.0338089843,6.24062296e-05,3.81901777e-05,-0.0636348063
64.6,-0.0326236585,-0.0918483261,0.0338080977,6.21703596e-05,3.85950249e-05,-0.0657623479
64.7,-0.0349280128,-0.0946190486,0.0338072023,6.19236841e-05,3.90113276e-05,-0.0679104306
64.8,-0.0371775703,-0.0973894062,0.0338062985,6.16657205e-05,3.94390262e-05,-0.0700801748
64.9,-0.0393695188,-0.100159581,0.033805387,6.13961949e-05,3.98780534e-05,-0.0722726573
65,-0.0415010435,-0.102929712,0.0338044682,6.11145284e-05,4.0328339e-05,-0.0744889072
65.1,-0.0435693278,-0.105699894,0.0338035428,6.08206541e-05,4.07898042e-05,-0.0767299012
65.2,-0.0455715545,-0.108470172,0.0338026113,6.05138889e-05,4.12623621e-05,-0.0789965585
65.3,-0.0475049073,-0.111240539,0.0338016743,6.01937898e-05,4.17459193e-05,-0.081289735
65.4,-0.049366572,-0.114010929,0.0338007323,5.98602872e-05,4.224037e-05,-0.083610217
65.5,-0.0511537389,-0.116781218,0.0337997859,5.95126948e-05,4.27455958e-05,-0.0859587145
65.6,-0.052863605,-0.119551217,0.0337988357,5.9150311e-05,4.32614691e-05,-0.0883358539
65.7,-0.0544933762,-0.122320664,0.0337978821,5.87730254e-05,4.37878472e-05,-0.0907421695
65.8,-0.0560402709,-0.125089228,0.0337969259,5.83802981e-05,4.43245696e-05,-0.0931780952
65.9,-0.0575015231,-0.127856494,0.0337959675,5.79714207e-05,4.48714611e-05,-0.0956439551
66,-0.0588743867,-0.130621967,0.0337950076,5.75459044e-05,4.54283283e-05,-0.0981399534
66.1,-0.0601561394,-0.133385059,0.0337940465,5.71032724e-05,4.59949575e-05,-0.100666164
66.2,-0.0613440881,-0.136145091,0.033793085,5.66430989e-05,4.65711122e-05,-0.103222518
66.3,-0.0624355743,-0.13890128,0.0337921236,5.61646668e-05,4.71565324e-05,-0.105808795
66.4,-0.0634279804,-0.14165274,0.0337911628,5.56675093e-05,4.77509343e-05,-0.108424606
66.5,-0.0643187365,-0.144398473,0.0337902032,5.51507868e-05,4.83540056e-05,-0.111069384
66.6,-0.0651053278,-0.147137363,0.0337892452,5.46140584e-05,4.896541e-05,-0.113742368
66.7,-0.065785303,-0.149868173,0.0337882895,5.40571981e-05,4.95847732e-05,-0.116442593
66.8,-0.0663562835,-0.152589537,0.0337873366,5.34787798e-05,5.02116914e-05,-0.119168869
66.9,-0.0668159729,-0.155299956,0.033786387,5.28786868e-05,5.08457329e-05,-0.121919772
67,-0.0671621683,-0.157997793,0.0337854412,5.22564073e-05,5.14864195e-05,-0.124693628
67.1,-0.0673927709,-0.160681266,0.0337844998,5.16109177e-05,5.21332447e-05,-0.127488497
67.2,-0.0675057995,-0.163348446,0.0337835632,5.09420804e-05,5.27856583e-05,-0.13030216
67.3,-0.067499403,-0.165997253,0.033782632,5.02491261e-05,5.34430692e-05,-0.133132105
67.4,-0.0673718746,-0.168625452,0.0337817066,4.95314115e-05,5.41048461e-05,-0.135975512
67.5,-0.067121667,-0.171230651,0.0337807876,4.87885027e-05,5.47703147e-05,-0.138829244
67.6,-0.0667474082,-0.173810296,0.0337798754,4.80198893e-05,5.54387543e-05,-0.141689833
67.7,-0.0662479176,-0.176361677,0.0337789706,4.72248946e-05,5.61094015e-05,-0.144553473
67.8,-0.0656222236,-0.17888192,0.0337780734,4.64033482e-05,5.67814471e-05,-0.14741601
67.9,-0.0648695811,-0.181367996,0.0337771846,4.55545763e-05,5.74540325e-05,-0.150272938
68,-0.0639894898,-0.183816719,0.0337763044,4.46780686e-05,5.81262613e-05,-0.153119399
68.1,-0.0629817125,-0.186224753,0.0337754333,4.37738012e-05,5.87971862e-05,-0.155950178
68.2,-0.0618462944,-0.188588617,0.0337745718,4.28414791e-05,5.94658159e-05,-0.158759711
68.3,-0.060583581,-0.190904693,0.0337737202,4.18805498e-05,6.01311163e-05,-0.161542095
68.4,-0.0591942371,-0.193169234,0.033772879,4.08909513e-05,6.07920187e-05,-0.164291092
68.5,-0.0576792644,-0.195378381,0.0337720486,3.98728562e-05,6.1447408e-05,-0.167000153
68.6,-0.0560400189,-0.197528169,0.0337712293,3.88258188e-05,6.20961376e-05,-0.169662439
68.7,-0.0542782267,-0.199614549,0.0337704216,3.77501532e-05,6.27370315e-05,-0.172270842
68.8,-0.0523959992,-0.201633402,0.0337696258,3.66461829e-05,6.33688793e-05,-0.174818024
68.9,-0.0503958457,-0.203580563,0.0337688422,3.55135743e-05,6.3990452e-05,-0.177296448
69,-0.048280685,-0.205451837,0.0337680713,3.43532423e-05,6.46005076e-05,-0.179698425
69.1,-0.0460538537,-0.207243027,0.0337673133,3.31654433e-05,6.51977784e-05,-0.182016161
69.2,-0.0437191126,-0.20894996,0.0337665686,3.19505062e-05,6.57810074e-05,-0.184241808
69.3,-0.0412806495,-0.21056851,0.0337658374,3.07093812e-05,6.63489273e-05,-0.186367524
69.4,-0.0387430793,-0.212094632,0.0337651202,2.94426619e-05,6.6900287e-05,-0.188385532
69.5,-0.0361114402,-0.213524386,0.0337644172,2.81512597e-05,6.74338466e-05,-0.190288189
69.6,-0.0333911861,-0.214853969,0.0337637286,2.68362358e-05,6.7948396e-05,-0.192068049
69.7,-0.0305881754,-0.216079748,0.0337630549,2.54987975e-05,6.84427501e-05,-0.193717937
69.8,-0.0277086552,-0.217198286,0.0337623961,2.41397081e-05,6.89157724e-05,-0.195231015
69.9,-0.0247592421,-0.218206374,0.0337617527,2.27608697e-05,6.93663757e-05,-0.196600854
70,-0.0217468984,-0.219101059,0.0337611247,2.13634056e-05,6.97935205e-05,-0.197821501
70.1,-0.0186789048,-0.219879672,0.0337605126,1.99487264e-05,7.01962478e-05,-0.198887547
70.2,-0.0155628284,-0.220539852,0.0337599165,1.85188378e-05,7.05736593e-05,-0.199794182
70.3,-0.0124064889,-0.221079569,0.0337593367,1.70751541e-05,7.09249418e-05,-0.200537255
70.4,-0.00921791958,-0.221497144,0.0337587734,1.56194319e-05,7.12493692e-05,-0.201113321
70.5,-0.00600532728,-0.221791266,0.0337582267,1.41534723e-05,7.15463105e-05,-0.201519684
70.6,-0.00277704913,-0.221961007,0.033757697,1.26793178e-05,7.18152299e-05,-0.201754428
70.7,0.000458492131,-0.222005826,0.0337571844,1.11990789e-05,7.20556908e-05,-0.20181644
70.8,0.00369283396,-0.221925582,0.033756689,9.71421299e-06,7.22673615e-05,-0.201705427
70.9,0.00691752035,-0.22172053,0.0337562112,8.22697308e-06,7.24500278e-05,-0.201421914
71,0.0101241482,-0.221391319,0.0337557511,6.7394818e-06,7.26035683e-05,-0.200967244
71.1,0.0133044129,-0.22093899,0.0337553088,5.25322447e-06,7.27279826e-05,-0.200343556
71.2,0.0164501524,-0.220364957,0.0337548845,3.7707768e-06,7.28233725e-05,-0.199553764
71.3,0.01955339,-0.219671002,0.0337544785,2.29354876e-06,7.28899399e-05,-0.198601517
71.4,0.0226063738,-0.218859249,0.0337540907,8.23636331e-07,7.29280016e-05,-0.197491156
71.5,0.0256016144,-0.21793215,0.0337537215,-6.37174219e-07,7.29379574e-05,-0.196227667
71.6,0.0285319183,-0.216892458,0.0337533708,-2.08725985e-06,7.2920316e-05,-0.194816622
71.7,0.0313904186,-0.2157432,0.0337530389,-3.52480795e-06,7.28756612e-05,-0.193264113
71.8,0.0341706011,-0.214487652,0.0337527258,-4.94827648e-06,7.28046689e-05,-0.191576694
71.9,0.0368663269,-0.213129311,0.0337524317,-6.35610299e-06,7.27080802e-05,-0.189761303
72,0.039471851,-0.211671862,0.0337521566,-7.74706651e-06,7.25867143e-05,-0.1878252
72.1,0.0419818362,-0.210119148,0.0337519007,-9.11954691e-06,7.24414437e-05,-0.185775895
72.2,0.0443913636,-0.208475141,0.033751664,-1.0472614e-05,7.22731968e-05,-0.183621075
72.3,0.0466959392,-0.206743915,0.0337514466,-1.18051242e-05,7.20829498e-05,-0.181368541
72.4,0.0488914962,-0.204929609,0.0337512485,-1.31159481e-05,7.18717144e-05,-0.179026144
72.5,0.0509743944,-0.203036409,0.0337510697,-1.44043548e-05,7.1640533e-05,-0.176601721
72.6,0.0529414164,-0.20106851,0.0337509103,-1.56694024e-05,7.13904735e-05,-0.174103042
72.7,0.0547897604,-0.199030103,0.0337507703,-1.69104433e-05,7.11226154e-05,-0.171537759
72.8,0.0565170309,-0.196925343,0.0337506496,-1.81268602e-05,7.08380525e-05,-0.168913355
72.9,0.0581212273,-0.194758329,0.0337505484,-1.93182141e-05,7.05378774e-05,-0.166237107
73,0.0596007298,-0.192533089,0.0337504664,-2.0484287e-05,7.0223187e-05,-0.163516049
73.1,0.0609542844,-0.190253559,0.0337504037,-2.16243526e-05,6.9895066e-05,-0.160756942
73.2,0.0621809867,-0.187923568,0.0337503602,-2.27384746e-05,6.95545842e-05,-0.157966248
73.3,0.0632802643,-0.185546827,0.0337503359,-2.38265029e-05,6.92028012e-05,-0.15515011
73.4,0.0642518585,-0.183126917,0.0337503307,-2.48880486e-05,6.88407493e-05,-0.152314339
73.5,0.0650958061,-0.180667278,0.0337503443,-2.59235551e-05,6.84694389e-05,-0.149464399
73.6,0.0658124207,-0.178171205,0.0337503769,-2.69327288e-05,6.80898574e-05,-0.146605403
73.7,0.0664022737,-0.175641838,0.0337504281,-2.79158246e-05,6.77029549e-05,-0.143742112
73.8,0.0668661765,-0.173082164,0.0337504979,-2.88731562e-05,6.73096599e-05,-0.14087893
73.9,0.0672051614,-0.17049501,0.0337505861,-2.9804568e-05,6.69108604e-05,-0.138019912
74,0.0674204652,-0.167883042,0.0337506925,-3.07104491e-05,6.65074123e-05,-0.135168768
74.1,0.067513511,-0.165248768,0.033750817,-3.15912918e-05,6.61001366e-05,-0.13232887
74.2,0.067485893,-0.162594534,0.0337509593,-3.24472533e-05,6.56898228e-05,-0.129503265
74.3,0.0673393602,-0.159922532,0.0337511192,-3.3278754e-05,6.52772193e-05,-0.126694685
74.4,0.0670758021,-0.1572348,0.0337512966,-3.4086063e-05,6.48630446e-05,-0.123905556
74.5,0.0666972345,-0.154533224,0.0337514912,-3.48695456e-05,6.4447975e-05,-0.121138017
74.6,0.0662057868,-0.151819543,0.0337517028,-3.56298549e-05,6.40326593e-05,-0.118393932
74.7,0.0656036897,-0.149095355,0.033751931,-3.6367287e-05,6.36177088e-05,-0.115674903
74.8,0.0648932638,-0.146362122,0.0337521756,-3.70821868e-05,6.32037035e-05,-0.112982285
74.9,0.0640769093,-0.143621172,0.0337524364,-3.77751236e-05,6.27911881e-05,-0.110317202
75,0.0631570965,-0.140873708,0.0337527131,-3.84465622e-05,6.23806809e-05,-0.107680562
75.1,0.0621363563,-0.138120811,0.0337530053,-3.90967982e-05,6.19726659e-05,-0.105073069
75.2,0.0610172732,-0.135363448,0.0337533128,-3.97265351e-05,6.15676014e-05,-0.102495238
75.3,0.0598024769,-0.132602474,0.0337536352,-4.03362104e-05,6.1165918e-05,-0.0999474075
75.4,0.0584946364,-0.129838642,0.0337539722,-4.09261225e-05,6.07680202e-05,-0.0974297558
75.5,0.0570964534,-0.127072605,0.0337543235,-4.14965805e-05,6.03742852e-05,-0.0949423093
75.6,0.0556106576,-0.124304923,0.0337546887,-4.20483609e-05,5.99850679e-05,-0.092484956
75.7,0.0540400011,-0.121536071,0.0337550675,-4.25819241e-05,5.96007036e-05,-0.0900574569
75.8,0.0523872548,-0.118766436,0.0337554594,-4.3097294e-05,5.92215041e-05,-0.0876594557
75.9,0.050655204,-0.115996331,0.0337558643,-4.35953079e-05,5.88477604e-05,-0.0852904891
76,0.0488466457,-0.113225997,0.0337562815,-4.40763385e-05,5.847975e-05,-0.0829499959
76.1,0.0469643851,-0.110455603,0.0337567109,-4.45405451e-05,5.81177283e-05,-0.0806373253
76.2,0.0450112333,-0.107685257,0.0337571519,-4.49885411e-05,5.77619374e-05,-0.0783517448
76.3,0.0429900053,-0.104915007,0.0337576042,-4.54204753e-05,5.74126031e-05,-0.0760924478
76.4,0.040903518,-0.102144846,0.0337580674,-4.58370291e-05,5.70699381e-05,-0.0738585599
76.5,0.0387545882,-0.0993747135,0.033758541,-4.62383608e-05,5.67341439e-05,-0.0716491449
76.6,0.0365460324,-0.0966045028,0.0337590247,-4.66249016e-05,5.6405408e-05,-0.069463211
76.7,0.0342806646,-0.0938340618,0.033759518,-4.69968479e-05,5.608391e-05,-0.0672997149
76.8,0.0319612961,-0.0910631971,0.0337600205,-4.73545736e-05,5.57698161e-05,-0.0651575671
76.9,0.0295907349,-0.0882916772,0.0337605318,-4.76987203e-05,5.54632886e-05,-0.0630356357
77,0.027171785,-0.085519235,0.0337610513,-4.80290093e-05,5.5164479e-05,-0.0609327499
77.1,0.0247072464,-0.082745571,0.0337615788,-4.83460483e-05,5.48735313e-05,-0.0588477033
77.2,0.0221999149,-0.0799703552,0.0337621136,-4.86501914e-05,5.45905856e-05,-0.0567792567
77.3,0.0196525817,-0.0771932301,0.0337626555,-4.89414335e-05,5.43157749e-05,-0.0547261408
77.4,0.0170680346,-0.0744138126,0.0337632038,-4.92201491e-05,5.40492277e-05,-0.0526870579
77.5,0.014449057,-0.0716316963,0.0337637582,-4.94867056e-05,5.37910689e-05,-0.050660684
77.6,0.0117984292,-0.0688464532,0.0337643182,-4.97410422e-05,5.35414203e-05,-0.0486456701
77.7,0.00911892844,-0.0660576359,0.0337648833,-4.99834969e-05,5.33003991e-05,-0.0466406438
77.8,0.00641332962,-0.0632647791,0.0337654531,-5.02144024e-05,5.30681227e-05,-0.0446442099
77.9,0.00368440582,-0.0604674014,0.0337660271,-5.04336341e-05,5.28447053e-05,-0.0426549512
78,0.000934929001,-0.0576650067,0.0337666047,-5.06415772e-05,5.26302598e-05,-0.0406714293
78.1,-0.00183232909,-0.054857086,0.0337671856,-5.08381998e-05,5.24248992e-05,-0.038692185
78.2,-0.00461459619,-0.0520431183,0.0337677693,-5.10237141e-05,5.22287352e-05,-0.0367157379
78.3,-0.00740909859,-0.0492225724,0.0337683553,-5.11985313e-05,5.2041881e-05,-0.0347405872
78.4,-0.0102130601,-0.046394908,0.0337689431,-5.13623627e-05,5.18644502e-05,-0.0327652109
78.5,-0.0130237012,-0.0435595766,0.0337695321,-5.1515343e-05,5.16965559e-05,-0.0307880662
78.6,-0.0158382375,-0.0407160236,0.0337701221,-5.16577884e-05,5.1538314e-05,-0.0288075886
78.7,-0.0186538795,-0.0378636884,0.0337707124,-5.17896283e-05,5.13898415e-05,-0.0268221919
78.8,-0.0214678302,-0.0350020066,0.0337713026,-5.19108132e-05,5.12512573e-05,-0.0248302672
78.9,-0.024277285,-0.0321304101,0.0337718922,-5.20215108e-05,5.11226821e-05,-0.0228301829
79,-0.0270794295,-0.0292483293,0.0337724807,-5.21217623e-05,5.10042399e-05,-0.0208202837
79.1,-0.0298714388,-0.0263551935,0.0337730677,-5.22113913e-05,5.08960565e-05,-0.0187988901
79.2,-0.0326504756,-0.0234504327,0.0337736527,-5.22907071e-05,5.0798261e-05,-0.0167642978
79.3,-0.0354136891,-0.0205334785,0.0337742352,-5.23594887e-05,5.07109857e-05,-0.0147147771
79.4,-0.0381582133,-0.0176037653,0.0337748147,-5.24177828e-05,5.06343657e-05,-0.0126485719
79.5,-0.0408811656,-0.0146607323,0.0337753907,-5.24654373e-05,5.05685396e-05,-0.0105639
79.6,-0.0435796448,-0.0117038243,0.0337759629,-5.25023019e-05,5.0513649e-05,-0.00845895198
79.7,-0.04625073,-0.00873249355,0.0337765306,-5.252876e-05,5.04698394e-05,-0.00633189103
79.8,-0.0488914786,-0.00574620147,0.0337770936,-5.25442573e-05,5.04372596e-05,-0.00418085294
79.9,-0.0514989242,-0.00274442035,0.0337776512,-5.2548776e-05,5.04160616e-05,-0.00200394596
80,-0.0540700756,0.000273364659,0.0337782031,-5.25422851e-05,5.04064008e-05,0.00020074898
80.1,-0.0566019141,0.00330765343,0.0337787488,-5.2524603e-05,5.04084362e-05,0.00243517782
80.2,-0.0590913925,0.0063589286,0.0337792878,-5.24956322e-05,5.04223296e-05,0.00470131263
80.3,-0.0615354325,0.00942765302,0.0337798197,-5.24549833e-05,5.04482457e-05,0.00700115053
80.4,-0.0639309229,0.012514267,0.0337803441,-5.24028079e-05,5.04863522e-05,0.00933671218
80.5,-0.0662747183,0.0156191855,0.0337808605,-5.23385876e-05,5.05368186e-05,0.0117100399
80.6,-0.0685636364,0.0187427947,0.0337813686,-5.2262078e-05,5.05998171e-05,0.0141231953
80.7,-0.0707944566,0.0218854482,0.0337818678,-5.21733721e-05,5.06755209e-05,0.0165782561
80.8,-0.072963918,0.0250474639,0.0337823577,-5.20716965e-05,5.07641042e-05,0.0190773124
80.9,-0.0750687177,0.0282291189,0.033782838,-5.19570873e-05,5.08657424e-05,0.0216224627
81,-0.0771055091,0.0314306453,0.0337833082,-5.18292856e-05,5.09806095e-05,0.0242158078
81.1,-0.0790709002,0.0346522251,0.0337837679,-5.1687837e-05,5.11088788e-05,0.0268594455
81.2,-0.0809614523,0.0378939844,0.0337842168,-5.15323521e-05,5.12507216e-05,0.0295554626
81.3,-0.0827736789,0.0411559879,0.0337846544,-5.13622372e-05,5.14063065e-05,0.032305927
81.4,-0.0845040444,0.0444382318,0.0337850804,-5.11775115e-05,5.15757981e-05,0.0351128773
81.5,-0.0861489637,0.0477406371,0.0337854944,-5.09775897e-05,5.17593539e-05,0.0379783125
81.6,-0.0877048015,0.0510630417,0.033785896,-5.07617692e-05,5.19571263e-05,0.0409041784
81.7,-0.0891678729,0.0544051922,0.0337862848,-5.05298279e-05,5.21692584e-05,0.0438923537
81.8,-0.0905344431,0.0577667348,0.0337866606,-5.02813797e-05,5.23958824e-05,0.0469446332
81.9,-0.0918007296,0.0611472056,0.033787023,-5.00156239e-05,5.2637118e-05,0.0500627097
82,-0.0929629031,0.0645460205,0.0337873716,-4.97320858e-05,5.28930716e-05,0.0532481532
82.1,-0.0940170903,0.0679624638,0.0337877061,-4.94301503e-05,5.31638312e-05,0.0565023879
82.2,-0.0949593779,0.0713956764,0.0337880262,-4.9109287e-05,5.34494668e-05,0.0598266666
82.3,-0.0957858161,0.0748446433,0.0337883316,-4.87690769e-05,5.37500234e-05,0.0632220422
82.4,-0.0964924252,0.07830818,0.033788622,-4.84084281e-05,5.4065522e-05,0.0666893369
82.5,-0.0970752018,0.081784919,0.0337888971,-4.80268796e-05,5.43959556e-05,0.0702291078
82.6,-0.0975301278,0.085273294,0.0337891567,-4.76237953e-05,5.47412829e-05,0.0738416099
82.7,-0.0978531802,0.0887715258,0.0337894004,-4.71984842e-05,5.51014271e-05,0.0775267555
82.8,-0.098040343,0.092277605,0.033789628,-4.6750084e-05,5.54762697e-05,0.0812840712
82.9,-0.0980876211,0.0957892769,0.0337898393,-4.62779084e-05,5.58656499e-05,0.0851126506
83,-0.0979910565,0.0993040236,0.033790034,-4.5781105e-05,5.62693547e-05,0.0890111058
83.1,-0.0977467472,0.102819048,0.0337902119,-4.5259233e-05,5.66871201e-05,0.0929775142
83.2,-0.0973508677,0.106331256,0.0337903728,-4.47112388e-05,5.71186171e-05,0.0970093646
83.3,-0.0967996935,0.109837242,0.0337905166,-4.41362408e-05,5.75634611e-05,0.1011035
83.4,-0.0960896279,0.113333269,0.0337906429,-4.35337387e-05,5.80211911e-05,0.105256062
83.5,-0.0952172318,0.116815259,0.0337907517,-4.29029338e-05,5.84912766e-05,0.109462426
83.6,-0.0941792573,0.120278774,0.0337908428,-4.22429873e-05,5.89731024e-05,0.113717153
83.7,-0.092972684,0.123719009,0.033790916,-4.15531531e-05,5.94659762e-05,0.118013924
83.8,-0.091594759,0.127130778,0.0337909713,-4.08329597e-05,5.99691098e-05,0.122345492
83.9,-0.09004304,0.130508509,0.0337910085,-4.00813909e-05,6.04816275e-05,0.12670363
84,-0.0883154412,0.133846243,0.0337910274,-3.9298191e-05,6.10025556e-05,0.131079089
84.1,-0.0864102828,0.13713763,0.0337910282,-3.84827508e-05,6.15308186e-05,0.135461566
84.2,-0.0843263422,0.140375938,0.0337910105,-3.76345471e-05,6.20652421e-05,0.139839675
84.3,-0.0820629077,0.143554062,0.0337909745,-3.67530213e-05,6.2604549e-05,0.144200939
84.4,-0.0796198334,0.146664542,0.0337909201,-3.58381535e-05,6.31473631e-05,0.148531796
84.5,-0.0769975947,0.149699584,0.0337908472,-3.48897534e-05,6.36922008e-05,0.152817617
84.6,-0.074197344,0.152651093,0.0337907558,-3.39074717e-05,6.4237489e-05,0.157042746
84.7,-0.071220964,0.15551071,0.033790646,-3.28915325e-05,6.47815606e-05,0.161190572
84.8,-0.0680711194,0.158269857,0.0337905179,-3.18421896e-05,6.53226644e-05,0.165243608
84.9,-0.0647513041,0.160919795,0.0337903713,-3.07598453e-05,6.5858971e-05,0.16918361
85,-0.0612658829,0.16345168,0.0337902064,-2.96447172e-05,6.63885899e-05,0.172991715
85.1,-0.0576201269,0.165856638,0.0337900234,-2.84976452e-05,6.69095828e-05,0.176648606
85.2,-0.0538202396,0.168125841,0.0337898221,-2.73195842e-05,6.7419971e-05,0.180134708
85.3,-0.0498733736,0.170250591,0.0337896028,-2.61114741e-05,6.79177613e-05,0.1834304
85.4,-0.0457876352,0.172222409,0.0337893656,-2.48743666e-05,6.84009623e-05,0.186516252
85.5,-0.0415720772,0.174033127,0.0337891106,-2.3610003e-05,6.88676086e-05,0.189373284
85.6,-0.037236677,0.175674985,0.0337888379,-2.23197917e-05,6.93157706e-05,0.191983228
85.7,-0.0327923008,0.177140726,0.0337885477,-2.1005505e-05,6.97435984e-05,0.194328805
85.8,-0.0282506526,0.178423692,0.0337882402,-1.96693644e-05,7.0149321e-05,0.196393995
85.9,-0.0236242083,0.179517909,0.0337879154,-1.83129622e-05,7.05312899e-05,0.198164305
86,-0.0189261358,0.180418177,0.0337875736,-1.69390896e-05,7.08879925e-05,0.199627018
86.1,-0.0141702012,0.181120143,0.0337872149,-1.55501135e-05,7.12180631e-05,0.200771421
86.2,-0.00937066309,0.181620364,0.0337868395,-1.41483327e-05,7.15203202e-05,0.201589001
86.3,-0.00454215687,0.181916362,0.0337864477,-1.27365363e-05,7.17937702e-05,0.202073605
86.4,0.00030042918,0.182006658,0.0337860395,-1.13176369e-05,7.20376237e-05,0.202221557
86.5,0.00514208308,0.181890802,0.0337856152,-9.89404159e-06,7.22513021e-05,0.202031733
86.6,0.00996780102,0.181569373,0.033785175,-8.46898416e-06,7.24344565e-05,0.201505576
86.7,0.0147627192,0.181043974,0.0337847191,-7.04496137e-06,7.25869446e-05,0.200647073
86.8,0.0195122423,0.180317206,0.0337842476,-5.62475285e-06,7.27088675e-05,0.199462677
86.9,0.0242021667,0.179392627,0.0337837609,-4.21156738e-06,7.28005203e-05,0.197961185
87,0.0288187951,0.1782747,0.033783259,-2.80775965e-06,7.28624178e-05,0.196153568
87.1,0.0333490406,0.176968725,0.0337827422,-1.41592385e-06,7.28952646e-05,0.194052778
87.2,0.0377805188,0.175480765,0.0337822108,-3.84854229e-08,7.28999552e-05,0.191673511
87.3,0.0421016266,0.173817557,0.033781665,1.32188174e-06,7.28775391e-05,0.189031956
87.4,0.0463016054,0.171986427,0.0337811049,2.66315419e-06,7.2829214e-05,0.186145532
87.5,0.0503705908,0.169995189,0.0337805309,3.98321514e-06,7.27563036e-05,0.183032608
87.6,0.0542996468,0.167852056,0.0337799432,5.28013203e-06,7.2660236e-05,0.179712236
87.7,0.0580807849,0.165565539,0.033779342,6.55231769e-06,7.25425236e-05,0.176203882
87.8,0.0617069709,0.163144356,0.0337787277,7.7981175e-06,7.24047447e-05,0.172527174
87.9,0.0651721181,0.160597347,0.0337781005,9.01592402e-06,7.22485158e-05,0.168701667
88,0.0684710695,0.157933385,0.0337774607,1.02050769e-05,7.20754811e-05,0.16474663
88.1,0.0715995702,0.155161304,0.0337768086,1.13640107e-05,7.18872967e-05,0.160680859
88.2,0.0745542316,0.152289828,0.0337761446,1.24920814e-05,7.16855976e-05,0.156522512
88.3,0.0773324888,0.149327509,0.033775469,1.35887469e-05,7.14720105e-05,0.15228897
88.4,0.0799325523,0.146282677,0.0337747821,1.46531171e-05,7.12481146e-05,0.147996734
88.5,0.082353357,0.143163391,0.0337740842,1.56851264e-05,7.10154498e-05,0.143661331
88.6,0.0845945072,0.139977404,0.0337733759,1.66845028e-05,7.07754986e-05,0.139297262
88.7,0.0866562223,0.136732134,0.0337726574,1.76508641e-05,7.05296828e-05,0.134917956
88.8,0.0885392801,0.133434641,0.0337719291,1.85843101e-05,7.02793503e-05,0.130535754
88.9,0.0902449628,0.13009161,0.0337711915,1.9485211e-05,7.00257847e-05,0.126161905
89,0.0917750035,0.126709341,0.033770445,2.03534698e-05,6.97701906e-05,0.121806582
89.1,0.0931315347,0.123293748,0.03376969,2.11893017e-05,6.9513696e-05,0.117478904
89.2,0.0943170397,0.119850352,0.0337689269,2.19931139e-05,6.92573499e-05,0.113186973
89.3,0.0953343069,0.116384292,0.0337681563,2.27656027e-05,6.90021286e-05,0.10893792
89.4,0.096186387,0.112900328,0.0337673785,2.35069621e-05,6.87489326e-05,0.104737951
89.5,0.0968765535,0.109402852,0.0337665941,2.42175939e-05,6.84985854e-05,0.100592402
89.6,0.0974082667,0.105895899,0.0337658035,2.48983148e-05,6.82518411e-05,0.0965057973
89.7,0.0977851409,0.102383163,0.0337650073,2.55496856e-05,6.80093867e-05,0.0924819065
89.8,0.0980109144,0.098868012,0.0337642058,2.61721429e-05,6.77718423e-05,0.0885238031
89.9,0.0980894234,0.095353501,0.0337633997,2.67665637e-05,6.7539766e-05,0.0846339223
90,0.0980245782,0.0918423921,0.0337625894,2.73332135e-05,6.73136584e-05,0.0808141174
90.1,0.0978203421,0.0883371693,0.0337617755,2.78730701e-05,6.70939613e-05,0.0770657138
90.2,0.0974807137,0.0848400564,0.0337609585,2.83867435e-05,6.68810708e-05,0.0733895614
90.3,0.0970097105,0.0813530329,0.0337601389,2.88747119e-05,6.66753294e-05,0.0697860836
90.4,0.0964113556,0.077877851,0.0337593172,2.93378833e-05,6.64770389e-05,0.066255323
90.5,0.0956896659,0.0744160514,0.033758494,2.97764677e-05,6.62864568e-05,0.0627969852
90.6,0.094848642,0.0709689783,0.0337576699,3.01916294e-05,6.61038037e-05,0.0594104782
90.7,0.0938922605,0.0675377943,0.0337568454,3.05836219e-05,6.59292668e-05,0.0560949494
90.8,0.0928244668,0.0641234943,0.033756021,3.09530507e-05,6.57629976e-05,0.0528493194
90.9,0.0916491695,0.060726919,0.0337551973,3.13008425e-05,6.56051219e-05,0.0496723127
91,0.0903702367,0.0573487671,0.0337543748,3.1627099e-05,6.54557369e-05,0.0465624856
91.1,0.0889914918,0.0539896073,0.0337535542,3.19325448e-05,6.53149151e-05,0.0435182519
91.2,0.0875167118,0.0506498892,0.0337527359,3.22179331e-05,6.51827083e-05,0.0405379049
91.3,0.085949625,0.0473299537,0.0337519206,3.24836131e-05,6.50591486e-05,0.0376196385
91.4,0.0842939104,0.0440300424,0.0337511087,3.27300563e-05,6.49442492e-05,0.0347615647
91.5,0.082553197,0.0407503066,0.033750301,3.2957533e-05,6.48380077e-05,0.0319617304
91.6,0.0807310637,0.0374908156,0.0337494978,3.3166879e-05,6.47404066e-05,0.0292181312
91.7,0.07883104,0.0342515643,0.0337486999,3.3358525e-05,6.46514176e-05,0.026528724
91.8,0.0768566064,0.0310324801,0.0337479078,3.35324969e-05,6.4570999e-05,0.0238914383
91.9,0.0748111958,0.0278334297,0.0337471219,3.36893882e-05,6.44990995e-05,0.0213041854
92,0.0726981944,0.0246542244,0.033746343,3.38295855e-05,6.44356588e-05,0.0187648668
92.1,0.0705209433,0.0214946264,0.0337455715,3.39536089e-05,6.43806088e-05,0.0162713816
92.2,0.0682827401,0.0183543531,0.0337448081,3.40615269e-05,6.43338746e-05,0.0138216321
92.3,0.0659868407,0.0152330824,0.0337440532,3.41536399e-05,6.42953745e-05,0.0114135295
92.4,0.0636364607,0.012130456,0.0337433075,3.42305369e-05,6.42650218e-05,0.00904499796
92.5,0.0612347778,0.00904608408,0.0337425715,3.42921834e-05,6.42427252e-05,0.00671397803
92.6,0.0587849331,0.00597954847,0.0337418458,3.43388794e-05,6.42283887e-05,0.00441843
92.7,0.0562900336,0.00293040584,0.0337411308,3.43709769e-05,6.42219133e-05,0.00215633601
92.8,0.0537531535,-0.000101809255,0.0337404272,3.4388613e-05,6.42231965e-05,-7.42980072e-05
92.9,0.0511773365,-0.00311758172,0.0337397355,3.43921837e-05,6.4232133e-05,-0.00227544094
93,0.0485655977,-0.00611741339,0.0337390562,3.4381593e-05,6.42486153e-05,-0.00444903542
93.1,0.0459209254,-0.00910182086,0.0337383899,3.43570489e-05,6.42725335e-05,-0.00659699716
93.2,0.0432462825,-0.0120713332,0.0337377371,3.4318803e-05,6.43037758e-05,-0.00872121449
93.3,0.0405446091,-0.0150264904,0.0337370984,3.42669617e-05,6.43422286e-05,-0.0108235483
93.4,0.0378188236,-0.0179678411,0.0337364742,3.42016346e-05,6.43877768e-05,-0.0129058318
93.5,0.0350718245,-0.0208959412,0.033735865,3.41229698e-05,6.44403036e-05,-0.0149698711
93.6,0.0323064927,-0.0238113523,0.0337352714,3.40308611e-05,6.44996907e-05,-0.0170174453
93.7,0.0295256919,-0.0267146404,0.033734694,3.39256641e-05,6.45658185e-05,-0.0190503069
93.8,0.0267322713,-0.0296063741,0.0337341331,3.380733e-05,6.4638565e-05,-0.0210701827
93.9,0.0239290664,-0.0324871237,0.0337335893,3.36755973e-05,6.47178082e-05,-0.0230787737
94,0.021118901,-0.0353574596,0.033733063,3.35309443e-05,6.48034231e-05,-0.0250777564
94.1,0.0183045879,-0.0382179516,0.0337325548,3.33731487e-05,6.48952832e-05,-0.0270687832
94.2,0.015488931,-0.0410691671,0.0337320651,3.32022599e-05,6.49932602e-05,-0.0290534828
94.3,0.012674726,-0.0439116703,0.0337315944,3.30182818e-05,6.50972234e-05,-0.0310334613
94.4,0.00986476202,-0.0467460209,0.0337311431,3.28210485e-05,6.520704e-05,-0.0330103021
94.5,0.00706182256,-0.0495727731,0.0337307116,3.2610614e-05,6.53225747e-05,-0.034985567
94.6,0.00426868671,-0.0523924742,0.0337303005,3.23870868e-05,6.54436886e-05,-0.0369607962
94.7,0.00148813033,-0.0552056635,0.0337299102,3.21500534e-05,6.55702398e-05,-0.0389375092
94.8,-0.00127707311,-0.058012871,0.033729541,3.18997975e-05,6.57020838e-05,-0.0409172041
94.9,-0.00402415146,-0.0608146164,0.0337291934,3.16359326e-05,6.58390701e-05,-0.0429013587
95,-0.006750333,-0.063611407,0.0337288678,3.13583112e-05,6.5981047e-05,-0.0448914297
95.1,-0.00945284566,-0.0664037374,0.0337285646,3.10672544e-05,6.61278551e-05,-0.0468888529
95.2,-0.0121289162,-0.0691920869,0.0337282842,3.07621483e-05,6.6279331e-05,-0.0488950427
95.3,-0.0147757693,-0.0719769187,0.0337280269,3.04430743e-05,6.64353062e-05,-0.0509113916
95.4,-0.0173906277,-0.0747586779,0.0337277931,3.01098603e-05,6.6595605e-05,-0.0529392692
95.5,-0.0199707105,-0.0775377899,0.0337275832,2.97621659e-05,6.67600459e-05,-0.0549800213
95.6,-0.0225132337,-0.0803146584,0.0337273974,2.94000929e-05,6.69284401e-05,-0.0570349689
95.7,-0.0250154094,-0.0830896634,0.0337272362,2.90233085e-05,6.71005895e-05,-0.0591054062
95.8,-0.0274744454,-0.0858631591,0.0337270999,2.86314718e-05,6.72762896e-05,-0.0611925989
95.9,-0.0298875457,-0.0886354718,0.0337269887,2.82246409e-05,6.74553253e-05,-0.0632977823
96,-0.0322519098,-0.0914068973,0.033726903,2.78024524e-05,6.76374718e-05,-0.0654221585
96.1,-0.034564733,-0.0941776982,0.033726843,2.73645336e-05,6.78224943e-05,-0.0675668936
96.2,-0.036823207,-0.0969481017,0.033726809,2.69109114e-05,6.80101469e-05,-0.0697331146
96.3,-0.0390245202,-0.099718296,0.0337268013,2.64411847e-05,6.82001696e-05,-0.0719219055
96.4,-0.0411658579,-0.102488428,0.0337268202,2.59549847e-05,6.83922926e-05,-0.0741343033
96.5,-0.043244404,-0.105258599,0.0337268658,2.54521857e-05,6.85862301e-05,-0.0763712934
96.6,-0.0452573411,-0.108028862,0.0337269384,2.49324192e-05,6.87816829e-05,-0.0786338044
96.7,-0.0472018528,-0.110799218,0.0337270382,2.43955869e-05,6.89783355e-05,-0.0809227027
96.8,-0.0490751243,-0.113569612,0.0337271654,2.38411102e-05,6.91758558e-05,-0.0832387863
96.9,-0.0508743452,-0.11633993,0.0337273201,2.32688098e-05,6.93738965e-05,-0.0855827777
97,-0.0525967111,-0.119109991,0.0337275026,2.26785619e-05,6.95720891e-05,-0.0879553172
97.1,-0.0542394265,-0.121879549,0.0337277131,2.206959e-05,6.9770048e-05,-0.0903569543
97.2,-0.0557997073,-0.12464828,0.0337279515,2.144204e-05,6.99673689e-05,-0.0927881395
97.3,-0.0572747851,-0.127415786,0.0337282181,2.07954079e-05,7.01636217e-05,-0.095249215
97.4,-0.05866191,-0.130181582,0.033728513,2.01292534e-05,7.03583606e-05,-0.0977404049
97.5,-0.0599583558,-0.132945098,0.0337288363,1.94435245e-05,7.0551112e-05,-0.100261804
97.6,-0.0611614244,-0.135705669,0.0337291881,1.87377577e-05,7.07413813e-05,-0.102813369
97.7,-0.0622684513,-0.138462528,0.0337295683,1.80115607e-05,7.09286481e-05,-0.105394901
97.8,-0.0632768121,-0.141214807,0.0337299772,1.7264697e-05,7.11123698e-05,-0.108006041
97.9,-0.0641839285,-0.143961525,0.0337304147,1.64970654e-05,7.12919735e-05,-0.110646252
98,-0.0649872767,-0.146701587,0.0337308809,1.57079163e-05,7.14668631e-05,-0.113314803
98.1,-0.0656843946,-0.149433774,0.0337313757,1.48974349e-05,7.16364169e-05,-0.116010763
98.2,-0.0662728913,-0.152156741,0.0337318991,1.40651688e-05,7.17999802e-05,-0.118732979
98.3,-0.0667504567,-0.154869012,0.0337324512,1.32107927e-05,7.19568782e-05,-0.121480065
98.4,-0.0671148722,-0.15756897,0.0337330319,1.23342189e-05,7.21064029e-05,-0.124250389
98.5,-0.0673640217,-0.160254857,0.0337336411,1.14352034e-05,7.22478235e-05,-0.127042052
98.6,-0.0674959044,-0.16292477,0.0337342787,1.05136393e-05,7.23803773e-05,-0.129852883
98.7,-0.0675086474,-0.165576651,0.0337349447,9.56919938e-06,7.25032804e-05,-0.132680415
98.8,-0.06740052,-0.168208291,0.033735639,8.60209636e-06,7.26157202e-05,-0.13552188
98.9,-0.0671699486,-0.170817322,0.0337363614,7.61199479e-06,7.27168594e-05,-0.138374191
99,-0.066815532,-0.173401217,0.0337371118,6.59888085e-06,7.28058419e-05,-0.141233934
99.1,-0.0663360582,-0.17595729,0.0337378901,5.56304806e-06,7.28817865e-05,-0.144097357
99.2,-0.0657305209,-0.178482694,0.033738696,4.50430752e-06,7.29437934e-05,-0.146960362
99.3,-0.0649981379,-0.180974423,0.0337395294,3.42284305e-06,7.29909503e-05,-0.149818499
99.4,-0.0641383685,-0.183429318,0.0337403901,2.31895085e-06,7.30223276e-05,-0.152666967
99.5,-0.0631509325,-0.185844065,0.0337412778,1.19286112e-06,7.30369879e-05,-0.155500607
99.6,-0.0620358288,-0.188215205,0.0337421924,4.49563955e-08,7.30339853e-05,-0.158313911
99.7,-0.0607933538,-0.190539142,0.0337431334,-1.12450551e-06,7.30123743e-05,-0.161101027
99.8,-0.0594241203,-0.19281215,0.0337441008,-2.31486582e-06,7.29712118e-05,-0.163855772
99.9,-0.0579290752,-0.195030385,0.0337450942,-3.52570178e-06,7.29095607e-05,-0.166571645
100,-0.0563095167,-0.197189899,0.0337461132,-4.75633495e-06,7.28265014e-05,-0.16924185
100.1,-0.0545671113,-0.199286655,0.0337471576,-6.0059784e-06,7.2721129e-05,-0.171859321
100.2,-0.0527039078,-0.201316545,0.0337482269,-7.27362237e-06,7.25925663e-05,-0.174416753
100.3,-0.0507223516,-0.203275407,0.033749321,-8.55872057e-06,7.24399634e-05,-0.176906639
100.4,-0.0486252953,-0.205159052,0.0337504393,-9.86009183e-06,7.22625202e-05,-0.179321311
100.5,-0.0464160088,-0.20696328,0.0337515815,-1.1176531e-05,7.20594688e-05,-0.181652988
100.6,-0.0440981848,-0.208683914,0.0337527472,-1.25070065e-05,7.1830105e-05,-0.183893828
100.7,-0.0416759431,-0.210316817,0.033753936,-1.38500389e-05,7.15737752e-05,-0.186035982
100.8,-0.0391538308,-0.21185793,0.0337551474,-1.52044506e-05,7.12898993e-05,-0.18807166
100.9,-0.0365368191,-0.213303294,0.033756381,-1.65685499e-05,7.09779656e-05,-0.189993193
101,-0.0338302963,-0.214649083,0.0337576364,-1.79411223e-05,7.06375449e-05,-0.191793099
101.1,-0.0310400572,-0.215891633,0.0337589131,-1.93202353e-05,7.02682962e-05,-0.193464154
101.2,-0.0281722882,-0.217027476,0.0337602105,-2.07043675e-05,6.98699626e-05,-0.194999463
101.3,-0.0252335488,-0.218053363,0.0337615283,-2.20918221e-05,6.94423938e-05,-0.196392526
101.4,-0.0222307477,-0.2189663,0.0337628659,-2.34804506e-05,6.89855301e-05,-0.197637312
101.5,-0.0191711169,-0.219763569,0.0337642229,-2.48690122e-05,6.84994209e-05,-0.198728318
101.6,-0.0160621804,-0.22044276,0.0337655986,-2.62551471e-05,6.79842277e-05,-0.199660637
101.7,-0.0129117199,-0.221001787,0.0337669925,-2.76371863e-05,6.74402074e-05,-0.200430009
101.8,-0.00972773728,-0.221438916,0.0337684042,-2.90132346e-05,6.68677413e-05,-0.201032875
101.9,-0.00651841476,-0.221752776,0.0337698332,-3.03811775e-05,6.62673037e-05,-0.201466414
102,-0.00329207153,-0.221942376,0.0337712787,-3.17396409e-05,6.56394888e-05,-0.201728587
102.1,-5.7119814e-05,-0.222007115,0.0337727404,-3.30861393e-05,6.49849896e-05,-0.20181815
102.2,0.00317798111,-0.221946786,0.0337742176,-3.44193697e-05,6.43045951e-05,-0.20173468
102.3,0.00640477109,-0.221761582,0.0337757097,-3.57373391e-05,6.35992026e-05,-0.201478571
102.4,0.00961483553,-0.221452089,0.0337772163,-3.70384034e-05,6.28697848e-05,-0.201051037
102.5,0.0127998511,-0.221019287,0.0337787367,-3.83209729e-05,6.21174134e-05,-0.200454093
102.6,0.0159516301,-0.220464531,0.0337802703,-3.95833281e-05,6.13432218e-05,-0.19969053
102.7,0.0190621636,-0.219789544,0.0337818166,-4.08243262e-05,6.05484247e-05,-0.198763883
102.8,0.0221236615,-0.2189964,0.033783375,-4.20423462e-05,5.97342901e-05,-0.197678386
102.9,0.0251285899,-0.218087499,0.0337849449,-4.32365437e-05,5.89021425e-05,-0.196438927
103,0.0280697064,-0.217065546,0.0337865256,-4.44052299e-05,5.80533494e-05,-0.195050987
103.1,0.0309400899,-0.215933528,0.0337881166,-4.55476702e-05,5.71893017e-05,-0.193520581
103.2,0.0337331686,-0.214694683,0.0337897172,-4.66631511e-05,5.63114298e-05,-0.191854193
103.3,0.0364427425,-0.213352474,0.0337913269,-4.77506215e-05,5.54211699e-05,-0.190058704
103.4,0.0390630026,-0.211910559,0.033792945,-4.88095302e-05,5.45199693e-05,-0.18814133
103.5,0.0415885462,-0.210372757,0.0337945709,-4.98391437e-05,5.36092689e-05,-0.186109543
103.6,0.0440143871,-0.208743022,0.0337962039,-5.08392773e-05,5.26905024e-05,-0.183971008
103.7,0.0463359634,-0.207025414,0.0337978434,-5.18095831e-05,5.17650884e-05,-0.181733511
103.8,0.0485491402,-0.205224064,0.0337994888,-5.27497212e-05,5.08344189e-05,-0.1794049
103.9,0.0506502096,-0.20334315,0.0338011393,-5.365975e-05,4.98998554e-05,-0.176993019
104,0.0526358871,-0.20138687,0.0338027944,-5.45395222e-05,4.89627255e-05,-0.174505651
104.1,0.0545033054,-0.199359415,0.0338044534,-5.53891359e-05,4.80243114e-05,-0.171950469
104.2,0.0562500051,-0.197264948,0.0338061155,-5.6208858e-05,4.70858539e-05,-0.169334988
104.3,0.0578739233,-0.19510758,0.0338077802,-5.69989435e-05,4.61485429e-05,-0.166666519
104.4,0.0593733808,-0.192891349,0.0338094466,-5.7759623e-05,4.52135184e-05,-0.163952138
104.5,0.0607470662,-0.190620209,0.0338111142,-5.84912913e-05,4.4281862e-05,-0.16119865
104.6,0.0619940208,-0.188298005,0.0338127822,-5.91945011e-05,4.33546033e-05,-0.158412567
104.7,0.0631136203,-0.185928469,0.0338144499,-5.98697592e-05,4.24327132e-05,-0.155600084
104.8,0.0641055573,-0.183515202,0.0338161167,-6.05175345e-05,4.15171067e-05,-0.152767065
104.9,0.0649698228,-0.181061668,0.0338177817,-6.11383862e-05,4.06086375e-05,-0.14991903
105,0.0657066877,-0.178571184,0.0338194443,-6.17331852e-05,3.97081056e-05,-0.147061149
105.1,0.0663166834,-0.176046918,0.0338211037,-6.23024545e-05,3.88162546e-05,-0.144198238
105.2,0.0668005844,-0.173491879,0.0338227592,-6.28468039e-05,3.79337707e-05,-0.141334758
105.3,0.067159389,-0.17090892,0.0338244102,-6.33669851e-05,3.70612863e-05,-0.13847482
105.4,0.0673943025,-0.168300734,0.0338260557,-6.38635968e-05,3.6199381e-05,-0.135622187
105.5,0.0675067195,-0.165669852,0.0338276952,-6.43377917e-05,3.53485845e-05,-0.132780285
105.6,0.0674982081,-0.163018647,0.0338293279,-6.47898959e-05,3.45093828e-05,-0.129952214
105.7,0.0673704935,-0.160349336,0.033830953,-6.52206681e-05,3.36822055e-05,-0.127140751
105.8,0.0671254437,-0.157663981,0.0338325698,-6.56311543e-05,3.28674483e-05,-0.124348374
105.9,0.0667650555,-0.15496449,0.0338341775,-6.60215941e-05,3.20654586e-05,-0.121577265
106,0.066291441,-0.152252627,0.0338357755,-6.63931767e-05,3.12765462e-05,-0.118829331
106.1,0.0657068155,-0.149530012,0.0338373629,-6.67464218e-05,3.05009873e-05,-0.116106214
106.2,0.0650134859,-0.146798129,0.033838939,-6.70819472e-05,2.97390187e-05,-0.113409308
106.3,0.0642138406,-0.144058325,0.0338405032,-6.74005826e-05,2.89908484e-05,-0.110739774
106.4,0.0633103391,-0.141311824,0.0338420545,-6.77029246e-05,2.82566529e-05,-0.108098552
106.5,0.0623055035,-0.138559725,0.0338435924,-6.79898136e-05,2.7536583e-05,-0.105486378
106.6,0.06120191,-0.135803014,0.0338451161,-6.82616529e-05,2.68307639e-05,-0.102903795
106.7,0.0600021817,-0.133042562,0.0338466248,-6.85190605e-05,2.6139295e-05,-0.100351171
106.8,0.0587089817,-0.13027914,0.0338481178,-6.87629238e-05,2.54622575e-05,-0.0978287073
106.9,0.0573250069,-0.127513415,0.0338495945,-6.89935296e-05,2.47997133e-05,-0.0953364542
107,0.0558529829,-0.124745962,0.033851054,-6.92115937e-05,2.41517047e-05,-0.092874321
107.1,0.0542956585,-0.121977268,0.0338524957,-6.94178045e-05,2.35182624e-05,-0.090442088
107.2,0.0526558018,-0.119207735,0.0338539189,-6.96124191e-05,2.2899401e-05,-0.0880394172
107.3,0.0509361963,-0.116437688,0.0338553228,-6.97961334e-05,2.22951231e-05,-0.0856658616
107.4,0.0491396371,-0.113667377,0.0338567068,-6.99694091e-05,2.17054219e-05,-0.0833208749
107.5,0.0472689282,-0.110896984,0.0338580702,-7.01326917e-05,2.11302805e-05,-0.0810038201
107.6,0.0453268802,-0.108126626,0.0338594124,-7.0286617e-05,2.05696754e-05,-0.0787139773
107.7,0.0433163075,-0.105356361,0.0338607325,-7.04313701e-05,2.00235769e-05,-0.0764505511
107.8,0.0412400266,-0.102586188,0.03386203,-7.05674268e-05,1.94919479e-05,-0.0742126775
107.9,0.0391008547,-0.0998160574,0.0338633042,-7.06952529e-05,1.89747493e-05,-0.0719994299
108,0.0369016083,-0.0970458684,0.0338645545,-7.0815363e-05,1.84719384e-05,-0.0698098248
108.1,0.0346451018,-0.0942754761,0.0338657802,-7.09279921e-05,1.79834721e-05,-0.0676428269
108.2,0.0323341471,-0.0915046935,0.0338669808,-7.10335284e-05,1.75093036e-05,-0.0654973539
108.3,0.0299715527,-0.088733295,0.0338681555,-7.11323403e-05,1.70493888e-05,-0.0633722801
108.4,0.0275601232,-0.0859610191,0.0338693037,-7.12246227e-05,1.66036814e-05,-0.0612664409
108.5,0.0251026594,-0.083187571,0.0338704249,-7.13107874e-05,1.61721384e-05,-0.0591786352
108.6,0.0226019576,-0.0804126257,0.0338715186,-7.13912779e-05,1.57547181e-05,-0.0571076291
108.7,0.0200608098,-0.0776358297,0.033872584,-7.14661139e-05,1.53513833e-05,-0.0550521578
108.8,0.0174820043,-0.0748568039,0.0338736206,-7.15356561e-05,1.49620971e-05,-0.0530109279
108.9,0.0148683253,-0.0720751455,0.033874628,-7.16004825e-05,1.45868303e-05,-0.0509826195
109,0.0122225534,-0.0692904298,0.0338756054,-7.1660294e-05,1.42255563e-05,-0.0489658877
109.1,0.00954746642,-0.0665022123,0.0338765525,-7.17155242e-05,1.38782526e-05,-0.0469593635
109.2,0.00684583953,-0.0637100306,0.0338774687,-7.17665439e-05,1.35449041e-05,-0.0449616554
109.3,0.00412044603,-0.0609134057,0.0338783535,-7.18135892e-05,1.32255015e-05,-0.0429713497
109.4,0.00137405806,-0.0581118437,0.0338792064,-7.18565993e-05,1.29200421e-05,-0.0409870114
109.5,-0.00139055267,-0.0553048376,0.0338800269,-7.18959287e-05,1.26285289e-05,-0.0390071843
109.6,-0.00417061408,-0.0524918681,0.0338808146,-7.19317538e-05,1.23509739e-05,-0.0370303917
109.7,-0.00696335266,-0.0496724057,0.0338815689,-7.19640613e-05,1.20873954e-05,-0.0350551358
109.8,-0.00976599279,-0.0468459113,0.0338822896,-7.19932937e-05,1.18378206e-05,-0.0330798983
109.9,-0.0125757554,-0.0440118378,0.0338829761,-7.20194557e-05,1.16022854e-05,-0.0311031394
110,-0.0153898572,-0.0411696314,0.033883628,-7.20425257e-05,1.13808336e-05,-0.0291232982
110.1,-0.0182055093,-0.0383187325,0.033884245,-7.20629601e-05,1.11735186e-05,-0.027138792
110.2,-0.0210199162,-0.0354585769,0.0338848267,-7.20805398e-05,1.09804037e-05,-0.0251480157
110.3,-0.0238302745,-0.0325885974,0.0338853727,-7.20955125e-05,1.08015606e-05,-0.0231493411
110.4,-0.0266337714,-0.0297082244,0.0338858827,-7.21081517e-05,1.06370727e-05,-0.0211411169
110.5,-0.0294275838,-0.0268168873,0.0338863563,-7.21180984e-05,1.04870325e-05,-0.0191216674
110.6,-0.0322088766,-0.0239140158,0.0338867933,-7.21257365e-05,1.03515434e-05,-0.0170892924
110.7,-0.0349748011,-0.0209990413,0.0338871933,-7.21311815e-05,1.023072e-05,-0.0150422661
110.8,-0.0377224938,-0.0180713976,0.033887556,-7.21343976e-05,1.01246882e-05,-0.0129788368
110.9,-0.0404490749,-0.0151305231,0.0338878813,-7.21353053e-05,1.00335848e-05,-0.0108972265
111,-0.0431516464,-0.0121758615,0.0338881688,-7.21340871e-05,9.95755842e-06,-0.00879562999
111.1,-0.0458272905,-0.00920686385,0.0338884183,-7.21307189e-05,9.89676994e-06,-0.00667221496
111.2,-0.0484730682,-0.00622298996,0.0338886295,-7.21252478e-05,9.8513921e-06,-0.00452512154
111.3,-0.051086017,-0.00322371026,0.0338888024,-7.21175796e-05,9.82161015e-06,-0.00235246235
111.4,-0.0536631498,-0.000208507736,0.0338889368,-7.21076099e-05,9.80762183e-06,-0.000152322667
111.5,-0.0562014525,0.00282312006,0.0338890323,-7.20957827e-05,9.80963778e-06,0.00207723923
111.6,-0.0586978824,0.00587165862,0.033889089,-7.20815959e-05,9.82788147e-06,0.00433819131
111.7,-0.0611493663,0.00893757416,0.0338891067,-7.20650952e-05,9.86258956e-06,0.00663252677
111.8,-0.0635527985,0.0120213108,0.0338890853,-7.20463136e-05,9.91401173e-06,0.00896226267
111.9,-0.065905039,0.0151232877,0.0338890247,-7.20251408e-05,9.98241122e-06,0.011329438
112,-0.0682029116,0.0182438957,0.0338889248,-7.20015392e-05,1.00680641e-05,0.0137361115
112.1,-0.0704432019,0.0213834942,0.0338887855,-7.1975232e-05,1.01712604e-05,0.0161843586
112.2,-0.0726226556,0.0245424068,0.0338886069,-7.19462992e-05,1.02923027e-05,0.0186762676
112.3,-0.0747379766,0.0277209175,0.0338883889,-7.1914416e-05,1.04315074e-05,0.021213936
112.4,-0.0767858252,0.0309192658,0.0338881315,-7.187954e-05,1.05892034e-05,0.0237994648
112.5,-0.0787628169,0.0341376421,0.0338878347,-7.18416834e-05,1.07657324e-05,0.0264349525
112.6,-0.0806655206,0.0373761818,0.0338874986,-7.1800252e-05,1.09614479e-05,0.0291224884
112.7,-0.0824904573,0.0406349598,0.0338871232,-7.17551266e-05,1.1176717e-05,0.0318641438
112.8,-0.0842340994,0.0439139836,0.0338867086,-7.17065524e-05,1.14119161e-05,0.0346619629
112.9,-0.0858928695,0.0472131868,0.0338862548,-7.16536087e-05,1.16674327e-05,0.0375179517
113,-0.0874631407,0.0505324211,0.0338857621,-7.15964147e-05,1.19436655e-05,0.0404340654
113.1,-0.0889412355,0.053871448,0.0338852305,-7.15346383e-05,1.22410193e-05,0.0434121943
113.2,-0.0903234274,0.0572299304,0.0338846601,-7.14676658e-05,1.25599094e-05,0.046454148
113.3,-0.0916059412,0.0606074228,0.0338840512,-7.1395412e-05,1.29007555e-05,0.0495616368
113.4,-0.0927849549,0.0640033608,0.0338834039,-7.13175898e-05,1.32639823e-05,0.0527362517
113.5,-0.0938566021,0.0674170505,0.0338827184,-7.12335796e-05,1.36500156e-05,0.0559794418
113.6,-0.0948169755,0.0708476564,0.033881995,-7.1142757e-05,1.40592852e-05,0.0592924888
113.7,-0.0956621308,0.0742941892,0.0338812338,-7.10451152e-05,1.44922162e-05,0.0626764797
113.8,-0.0963880926,0.0777554925,0.0338804352,-7.09397996e-05,1.49492292e-05,0.0661322756
113.9,-0.0969908609,0.0812302286,0.0338795994,-7.08262649e-05,1.54307386e-05,0.0696604782
114,-0.0974664191,0.0847168642,0.0338787267,-7.07042762e-05,1.59371459e-05,0.0732613933
114.1,-0.0978107444,0.0882136548,0.0338778175,-7.05727459e-05,1.64688369e-05,0.0769349905
114.2,-0.0980198187,0.091718629,0.033876872,-7.04311889e-05,1.70261817e-05,0.0806808609
114.3,-0.0980896425,0.0952295721,0.0338758906,-7.02791652e-05,1.76095212e-05,0.0844981703
114.4,-0.098016251,0.0987440093,0.0338748737,-7.01156822e-05,1.82191692e-05,0.0883856109
114.5,-0.0977957316,0.102259189,0.0338738216,-6.99398572e-05,1.88554044e-05,0.092341349
114.6,-0.0974242453,0.105772066,0.0338727349,-6.97511449e-05,1.95184654e-05,0.0963629708
114.7,-0.0968980497,0.109279284,0.0338716139,-6.95486935e-05,2.02085384e-05,0.100447426
114.8,-0.0962135258,0.112777162,0.033870459,-6.93313986e-05,2.09257589e-05,0.104590971
114.9,-0.0953672073,0.116261676,0.0338692708,-6.90987995e-05,2.16701962e-05,0.108789109
115,-0.0943558135,0.119728446,0.0338680496,-6.88492898e-05,2.24418486e-05,0.113036533
115.1,-0.0931762851,0.123172726,0.0338667961,-6.85822397e-05,2.32406423e-05,0.117327069
115.2,-0.091825824,0.126589392,0.0338655108,-6.82968579e-05,2.40664051e-05,0.12165362
115.3,-0.0903019352,0.129972934,0.0338641941,-6.79918717e-05,2.4918875e-05,0.126008118
115.4,-0.088602473,0.133317453,0.0338628467,-6.76661241e-05,2.57976807e-05,0.130381481
115.5,-0.0867256895,0.136616663,0.0338614692,-6.73188422e-05,2.67023424e-05,0.134763574
115.6,-0.0846702858,0.139863892,0.0338600621,-6.69489443e-05,2.7632247e-05,0.139143186
115.7,-0.0824354651,0.143052092,0.033858626,-6.6555259e-05,2.85866605e-05,0.143508013
115.8,-0.0800209878,0.146173859,0.0338571617,-6.6136861e-05,2.95647013e-05,0.147844665
115.9,-0.0774272265,0.149221451,0.0338556698,-6.5692487e-05,3.05653516e-05,0.15213868
116,-0.0746552222,0.152186818,0.0338541509,-6.52216755e-05,3.15874354e-05,0.156374564
116.1,-0.0717067378,0.155061641,0.0338526057,-6.47231864e-05,3.26296218e-05,0.160535851
116.2,-0.06858431,0.157837372,0.0338510351,-6.41960605e-05,3.36904269e-05,0.164605187
116.3,-0.0652912978,0.160505294,0.0338494396,-6.36398376e-05,3.47682067e-05,0.16856444
116.4,-0.0618319247,0.163056575,0.0338478202,-6.30536442e-05,3.58611583e-05,0.172394835
116.5,-0.0582113155,0.165482343,0.0338461774,-6.24369052e-05,3.69673317e-05,0.176077116
116.6,-0.0544355239,0.167773755,0.0338445122,-6.17893667e-05,3.80846267e-05,0.179591734
116.7,-0.0505115504,0.169922087,0.0338428252,-6.1110382e-05,3.92108099e-05,0.18291906
116.8,-0.0464473499,0.171918819,0.0338411174,-6.0399955e-05,4.03435278e-05,0.186039618
116.9,-0.0422518253,0.173755727,0.0338393896,-5.96581754e-05,4.14803135e-05,0.188934338
117,-0.0379348089,0.175424979,0.0338376425,-5.88851051e-05,4.2618613e-05,0.19158482
117.1,-0.0335070283,0.176919233,0.033835877,-5.80809281e-05,4.37558031e-05,0.19397361
117.2,-0.0289800581,0.178231728,0.0338340941,-5.72464584e-05,4.48892178e-05,0.196084468
117.3,-0.0243662563,0.179356377,0.0338322944,-5.6382417e-05,4.60161603e-05,0.197902643
117.4,-0.0196786865,0.18028785,0.0338304789,-5.54894973e-05,4.71339479e-05,0.199415117
117.5,-0.0149310262,0.181021655,0.0338286485,-5.45688416e-05,4.82399265e-05,0.200610845
117.6,-0.0101374632,0.1815542,0.033826804,-5.36219493e-05,4.93315046e-05,0.201480951
117.7,-0.00531258099,0.18188285,0.0338249464,-5.26505482e-05,5.04061677e-05,0.202018898
117.8,-0.000471236043,0.182005966,0.0338230764,-5.16557518e-05,5.14615194e-05,0.202220609
117.9,0.00437157054,0.181922932,0.0338211949,-5.0639619e-05,5.24953064e-05,0.202084551
118,0.0092008248,0.181634164,0.0338193028,-4.96043872e-05,5.35054247e-05,0.201611758
118.1,0.0140016319,0.181141103,0.0338174011,-4.85520071e-05,5.44899512e-05,0.200805817
118.2,0.0187593454,0.180446194,0.0338154905,-4.74847809e-05,5.54471572e-05,0.199672795
118.3,0.0234596913,0.179552845,0.033813572,-4.64050381e-05,5.63755208e-05,0.198221124
118.4,0.0280888844,0.178465379,0.0338116464,-4.53151924e-05,5.72737359e-05,0.196461444
118.5,0.0326337342,0.177188968,0.0338097146,-4.42177028e-05,5.81407177e-05,0.194406405
118.6,0.0370817387,0.175729559,0.0338077774,-4.31150312e-05,5.89756043e-05,0.19207044
118.7,0.0414211657,0.174093787,0.0338058358,-4.20097085e-05,5.97777543e-05,0.189469522
118.8,0.0456411185,0.172288891,0.0338038906,-4.09039739e-05,6.05467417e-05,0.186620888
118.9,0.0497315876,0.170322614,0.0338019427,-3.98005481e-05,6.12823508e-05,0.183542777
119,0.0536834873,0.168203111,0.0337999929,-3.87016519e-05,6.19845536e-05,0.180254149
119.1,0.0574886777,0.165938852,0.0337980423,-3.76092246e-05,6.2653517e-05,0.176774421
119.2,0.0611399726,0.163538529,0.0337960915,-3.65258678e-05,6.32895709e-05,0.173123212
119.3,0.0646311353,0.161010967,0.0337941417,-3.54535723e-05,6.38931956e-05,0.169320103
119.4,0.0679568623,0.15836504,0.0337921936,-3.43940354e-05,6.44650109e-05,0.165384424
119.5,0.0711127574,0.155609593,0.0337902481,-3.33490742e-05,6.50057586e-05,0.161335055
119.6,0.0740952966,0.152753371,0.0337883062,-3.23204786e-05,6.55162803e-05,0.157190266
119.7,0.0769017869,0.149804957,0.0337863687,-3.13096798e-05,6.5997504e-05,0.152967572
119.8,0.0795303188,0.146772721,0.0337844367,-3.03182664e-05,6.64504276e-05,0.148683618
119.9,0.0819797151,0.143664767,0.0337825109,-2.93471768e-05,6.68761018e-05,0.144354093
120,0.0842494776,0.140488899,0.0337805924,-2.83975482e-05,6.72756251e-05,0.139993662
120.1,0.0863397311,0.13725259,0.033778682,-2.74704728e-05,6.76501169e-05,0.135615928
120.2,0.0882511684,0.133962958,0.0337767807,-2.65666796e-05,6.8000717e-05,0.131233406
120.3,0.0899849949,0.130626749,0.0337748895,-2.56871408e-05,6.83285663e-05,0.126857518
120.4,0.0915428754,0.127250325,0.0337730092,-2.48319337e-05,6.86348041e-05,0.122498607
120.5,0.092926882,0.12383966,0.0337711409,-2.40019013e-05,6.89205613e-05,0.118165957
120.6,0.0941394454,0.120400339,0.0337692853,-2.31973691e-05,6.91869419e-05,0.113867832
120.7,0.0951833083,0.116937562,0.0337674436,-2.24184133e-05,6.94350325e-05,0.109611511
120.8,0.0960614824,0.113456147,0.0337656166,-2.1665578e-05,6.96658843e-05,0.105403345
120.9,0.0967772081,0.109960544,0.0337638052,-2.0938641e-05,6.98805164e-05,0.101248806
121,0.0973339184,0.106454846,0.0337620105,-2.02376387e-05,7.00799126e-05,0.0971525421
121.1,0.097735205,0.102942798,0.0337602333,-1.9562823e-05,7.02650158e-05,0.0931184401
121.2,0.0979847883,0.0994278201,0.0337584745,-1.89138468e-05,7.04367265e-05,0.0891496802
121.3,0.0980864907,0.0959130157,0.0337567352,-1.82903466e-05,7.05959075e-05,0.0852487954
121.4,0.098044212,0.0924011924,0.0337550161,-1.7692771e-05,7.0743376e-05,0.081417728
121.5,0.0978619085,0.0888948775,0.0337533183,-1.71203549e-05,7.08799044e-05,0.0776578841
121.6,0.0975435742,0.0853963348,0.0337516427,-1.6572924e-05,7.10062287e-05,0.0739701858
121.7,0.0970932246,0.081907582,0.0337499901,-1.60503226e-05,7.11230371e-05,0.0703551212
121.8,0.0965148827,0.0784304064,0.0337483614,-1.55520174e-05,7.12309812e-05,0.0668127908
121.9,0.0958125671,0.074966381,0.0337467576,-1.50779014e-05,7.13306695e-05,0.063342951
122,0.0949902816,0.0715168806,0.0337451795,-1.46273378e-05,7.14226736e-05,0.0599450545
122.1,0.0940520071,0.0680830956,0.033743628,-1.42003729e-05,7.15075267e-05,0.0566182882
122.2,0.0930016944,0.0646660468,0.0337421039,-1.37961409e-05,7.15857248e-05,0.0533616064
122.3,0.0918432582,0.0612665986,0.0337406082,-1.34144208e-05,7.16577327e-05,0.0501737629
122.4,0.0905805734,0.0578854715,0.0337391416,-1.30551013e-05,7.17239778e-05,0.0470533393
122.5,0.0892174706,0.0545232541,0.033737705,-1.27174206e-05,7.17848582e-05,0.0439987702
122.6,0.0877577344,0.0511804144,0.0337362993,-1.24012912e-05,7.18407406e-05,0.0410083669
122.7,0.086205101,0.0478573097,0.0337349252,-1.21059434e-05,7.18919634e-05,0.0380803376
122.8,0.0845632571,0.044554197,0.0337335835,-1.18313311e-05,7.19388382e-05,0.0352128065
122.9,0.0828358398,0.0412712413,0.033732275,-1.15770186e-05,7.19816486e-05,0.0324038297
123,0.081026436,0.0380085246,0.0337310005,-1.13425445e-05,7.20206554e-05,0.0296514101
123.1,0.079138583,0.034766053,0.0337297608,-1.1127532e-05,7.20560947e-05,0.0269535101
123.2,0.077175769,0.0315437643,0.0337285566,-1.09317949e-05,7.20881815e-05,0.0243080627
123.3,0.0751414344,0.0283415343,0.0337273886,-1.07547946e-05,7.21171082e-05,0.0217129816
123.4,0.0730389728,0.025159183,0.0337262576,-1.05963854e-05,7.21430489e-05,0.0191661694
123.5,0.0708717323,0.0219964799,0.0337251643,-1.04561478e-05,7.21661571e-05,0.0166655251
123.6,0.0686430174,0.0188531494,0.0337241093,-1.03335521e-05,7.218657e-05,0.0142089502
123.7,0.0663560905,0.0157288751,0.0337230933,-1.02288454e-05,7.22044063e-05,0.0117943541
123.8,0.0640141735,0.0126233043,0.033722117,-1.0141123e-05,7.22197693e-05,0.00941965854
123.9,0.0616204499,0.00953605216,0.0337211811,-1.00707286e-05,7.22327467e-05,0.00708280141
124,0.0591780667,0.00646670459,0.0337202861,-1.00168817e-05,7.2243411e-05,0.00478173962
124.1,0.056690136,0.00341482216,0.0337194326,-9.97948965e-06,7.22518214e-05,0.0025144517
124.2,0.0541597372,0.000379942698,0.0337186214,-9.95865875e-06,7.22580231e-05,0.000278939682
124.3,0.0515899188,-0.00263841572,0.0337178528,-9.95352772e-06,7.22620487e-05,-0.00192676941
124.4,0.0489837003,-0.00564075243,0.0337171276,-9.9643546e-06,7.22639183e-05,-0.00410462245
124.5,0.046344074,-0.00862758178,0.0337164462,-9.99102094e-06,7.22636401e-05,-0.00625653945
124.6,0.0436740069,-0.0115994311,0.0337158092,-1.00329907e-05,7.22612109e-05,-0.00838441316
124.7,0.0409764424,-0.0145568385,0.033715217,-1.00901124e-05,7.2256616e-05,-0.0104901088
124.8,0.0382543025,-0.0175003516,0.0337146701,-1.01624919e-05,7.22498301e-05,-0.012575464
124.9,0.0355104887,-0.0204305252,0.0337141691,-1.02497567e-05,7.22408175e-05,-0.0146422892
125,0.0327478844,-0.0233479201,0.0337137143,-1.0351962e-05,7.22295316e-05,-0.0166923677
125.1,0.0299693561,-0.0262531016,0.0337133062,-1.04688606e-05,7.22159164e-05,-0.0187274562
125.2,0.0271777553,-0.029146638,0.0337129453,-1.06001977e-05,7.21999052e-05,-0.0207492856
125.3,0.0243759194,-0.0320290995,0.0337126318,-1.07461187e-05,7.21814216e-05,-0.022759561
125.4,0.0215666739,-0.0349010566,0.0337123661,-1.09065278e-05,7.21603797e-05,-0.0247599628
125.5,0.0187528336,-0.0377630791,0.0337121487,-1.10810975e-05,7.21366838e-05,-0.026752147
125.6,0.0159372034,-0.0406157349,0.0337119798,-1.12698826e-05,7.21102276e-05,-0.0287377463
125.7,0.0131225803,-0.0434595889,0.0337118597,-1.14729785e-05,7.20808963e-05,-0.0307183701
125.8,0.0103117545,-0.0462952016,0.0337117887,-1.16899968e-05,7.20485644e-05,-0.0326956055
125.9,0.00750751019,-0.049123128,0.0337117672,-1.19212271e-05,7.20130965e-05,-0.0346710177
126,0.00471262721,-0.0519439167,0.0337117953,-1.21664819e-05,7.19743481e-05,-0.0366461504
126.1,0.00192988177,-0.0547581083,0.0337118732,-1.24255918e-05,7.19321633e-05,-0.0386225261
126.2,-0.000837952309,-0.0575662344,0.0337120012,-1.26988457e-05,7.18863765e-05,-0.0406016467
126.3,-0.00358810272,-0.0603688164,0.0337121795,-1.29859961e-05,7.1836812e-05,-0.0425849929
126.4,-0.00631779776,-0.0631663638,0.0337124081,-1.32872696e-05,7.17832825e-05,-0.044574025
126.5,-0.00902426542,-0.065959373,0.0337126874,-1.36024169e-05,7.17255915e-05,-0.046570182
126.6,-0.0117047327,-0.0687483262,0.0337130172,-1.39314142e-05,7.16635282e-05,-0.0485748818
126.7,-0.0143564248,-0.0715336891,0.0337133979,-1.42746886e-05,7.15968733e-05,-0.0505895204
126.8,-0.0169765645,-0.0743159098,0.0337138293,-1.46319286e-05,7.1525395e-05,-0.0526154711
126.9,-0.0195623719,-0.077095417,0.0337143117,-1.50032807e-05,7.14488487e-05,-0.0546540837
127,-0.0221110632,-0.0798726179,0.0337148449,-1.53886668e-05,7.13669782e-05,-0.0567066831
127.1,-0.0246198512,-0.0826478965,0.0337154291,-1.57880724e-05,7.1279513e-05,-0.0587745678
127.2,-0.0270859446,-0.0854216112,0.0337160642,-1.62018959e-05,7.11861711e-05,-0.0608590085
127.3,-0.0295065478,-0.088194093,0.0337167501,-1.66300826e-05,7.10866576e-05,-0.0629612452
127.4,-0.031878861,-0.0909656426,0.0337174869,-1.70723489e-05,7.09806627e-05,-0.0650824856
127.5,-0.0342000803,-0.0937365281,0.0337182743,-1.75289828e-05,7.0867861e-05,-0.0672239018
127.6,-0.0364673979,-0.0965069826,0.0337191124,-1.80002853e-05,7.07479155e-05,-0.0693866271
127.7,-0.0386780025,-0.0992772007,0.033720001,-1.84859416e-05,7.06204732e-05,-0.0715717527
127.8,-0.0408290801,-0.102047336,0.0337209399,-1.8986048e-05,7.0485164e-05,-0.0737803234
127.9,-0.0429178146,-0.104817497,0.0337219291,-1.95009042e-05,7.0341604e-05,-0.076013333
128,-0.0449413889,-0.107587745,0.0337229681,-2.00303974e-05,7.01893935e-05,-0.0782717198
128.1,-0.0468969861,-0.11035809,0.033724057,-2.05746287e-05,7.00281152e-05,-0.0805563603
128.2,-0.0487817912,-0.113128486,0.0337251953,-2.11336498e-05,6.98573364e-05,-0.0828680637
128.3,-0.0505929929,-0.115898828,0.033726383,-2.17074763e-05,6.96766066e-05,-0.0852075653
128.4,-0.0523277857,-0.118668947,0.0337276196,-2.22962888e-05,6.94854593e-05,-0.0875755189
128.5,-0.0539833724,-0.121438605,0.0337289049,-2.29000128e-05,6.92834109e-05,-0.0899724888
128.6,-0.055556967,-0.124207494,0.0337302386,-2.35185784e-05,6.90699592e-05,-0.0923989422
128.7,-0.0570457983,-0.126975227,0.0337316202,-2.41521043e-05,6.8844585e-05,-0.0948552391
128.8,-0.0584471132,-0.129741333,0.0337330495,-2.48006945e-05,6.86067528e-05,-0.097341623
128.9,-0.0597581813,-0.132505256,0.0337345261,-2.54642506e-05,6.83559103e-05,-0.0998582103
129,-0.0609762998,-0.135266346,0.0337360495,-2.61426157e-05,6.80914871e-05,-0.102404979
129.1,-0.0620987984,-0.138023853,0.0337376192,-2.68359808e-05,6.78128964e-05,-0.104981759
129.2,-0.0631230459,-0.140776926,0.0337392349,-2.75442993e-05,6.75195383e-05,-0.107588215
129.3,-0.0640464562,-0.143524602,0.0337408961,-2.82672132e-05,6.72107951e-05,-0.110223839
129.4,-0.0648664962,-0.146265804,0.0337426022,-2.90049232e-05,6.68860347e-05,-0.112887934
129.5,-0.0655806934,-0.148999333,0.0337443528,-2.97571592e-05,6.65446148e-05,-0.1155796
129.6,-0.066186645,-0.151723866,0.0337461472,-3.05236288e-05,6.61858765e-05,-0.11829772
129.7,-0.0666820274,-0.154437947,0.033747985,-3.13044303e-05,6.58091534e-05,-0.121040949
129.8,-0.0670646066,-0.157139981,0.0337498655,-3.20991281e-05,6.54137705e-05,-0.123807691
129.9,-0.0673322494,-0.159828236,0.0337517881,-3.29076423e-05,6.49990441e-05,-0.126596094
130,-0.0674829356,-0.162500828,0.0337537523,-3.37295789e-05,6.45642892e-05,-0.129404029
130.1,-0.0675147713,-0.165155727,0.0337557573,-3.45644256e-05,6.41088138e-05,-0.132229079
130.2,-0.0674260021,-0.167790747,0.0337578025,-3.54122106e-05,6.36319297e-05,-0.135068523
130.3,-0.0672150282,-0.170403545,0.0337598872,-3.62722294e-05,6.31329545e-05,-0.137919327
130.4,-0.0668804201,-0.172991621,0.0337620106,-3.71439204e-05,6.26112074e-05,-0.140778128
130.5,-0.0664209343,-0.175552313,0.0337641722,-3.80269822e-05,6.20660224e-05,-0.14364123
130.6,-0.0658355307,-0.1780828,0.033766371,-3.89207976e-05,6.14967484e-05,-0.146504591
130.7,-0.0651233902,-0.180580102,0.0337686064,-3.9824641e-05,6.09027537e-05,-0.149363816
130.8,-0.0642839324,-0.183041083,0.0337708775,-4.07378067e-05,6.02834291e-05,-0.15221416
130.9,-0.0633168344,-0.185462453,0.0337731836,-4.16596596e-05,5.9638196e-05,-0.155050521
131,-0.0622220492,-0.187840778,0.0337755238,-4.25892913e-05,5.89665105e-05,-0.157867447
131.1,-0.0609998249,-0.190172481,0.0337778973,-4.35256654e-05,5.82678666e-05,-0.16065914
131.2,-0.0596507224,-0.192453856,0.0337803031,-4.44681557e-05,5.75418036e-05,-0.163419467
131.3,-0.0581756343,-0.194681078,0.0337827405,-4.54158012e-05,5.67879189e-05,-0.166141979
131.4,-0.0565758019,-0.196850214,0.0337852085,-4.63670186e-05,5.60058609e-05,-0.168819923
131.5,-0.0548528317,-0.19895724,0.0337877062,-4.73211139e-05,5.51953393e-05,-0.171446276
131.6,-0.0530087109,-0.200998058,0.0337902327,-4.82768094e-05,5.43561419e-05,-0.174013768
131.7,-0.0510458208,-0.202968514,0.033792787,-4.9232743e-05,5.34881232e-05,-0.176514922
131.8,-0.0489669486,-0.20486442,0.0337953681,-5.0187734e-05,5.25912253e-05,-0.178942092
131.9,-0.046775297,-0.206681579,0.0337979752,-5.11404072e-05,5.16654724e-05,-0.181287511
132,-0.0444744913,-0.208415806,0.0338006071,-5.20892864e-05,5.07109846e-05,-0.183543344
132.1,-0.0420685831,-0.210062957,0.0338032629,-5.30328276e-05,4.97279709e-05,-0.185701739
132.2,-0.0395620514,-0.211618958,0.0338059416,-5.39699968e-05,4.87167473e-05,-0.187754893
132.3,-0.0369598004,-0.213079832,0.0338086421,-5.48987381e-05,4.76777333e-05,-0.189695112
132.4,-0.0342671525,-0.214441731,0.0338113635,-5.58176952e-05,4.66114438e-05,-0.19151488
132.5,-0.0314898387,-0.215700962,0.0338141045,-5.67255457e-05,4.55185135e-05,-0.193206927
132.6,-0.0286339843,-0.216854024,0.0338168643,-5.76204466e-05,4.43996776e-05,-0.194764302
132.7,-0.0257060905,-0.217897631,0.0338196416,-5.85010372e-05,4.32557811e-05,-0.196180437
132.8,-0.0227130124,-0.218828747,0.0338224356,-5.93657451e-05,4.20877755e-05,-0.197449221
132.9,-0.0196619324,-0.219644609,0.033825245,-6.02130733e-05,4.08967157e-05,-0.198565064
133,-0.0165603301,-0.220342754,0.0338280687,-6.10415927e-05,3.9683757e-05,-0.199522958
133.1,-0.0134159486,-0.220921045,0.0338309058,-6.18497471e-05,3.84501501e-05,-0.200318539
133.2,-0.0102367575,-0.22137769,0.0338337551,-6.26363159e-05,3.71972327e-05,-0.200948131
133.3,-0.00703091305,-0.221711259,0.0338366154,-6.33999787e-05,3.59264309e-05,-0.201408796
133.4,-0.0038067155,-0.2219207,0.0338394858,-6.41394936e-05,3.46392411e-05,-0.201698366
133.5,-0.000572565322,-0.222005349,0.0338423651,-6.48538625e-05,3.33372317e-05,-0.201815469
133.6,0.00266308259,-0.221964936,0.0338452522,-6.55419298e-05,3.20220262e-05,-0.201759552
133.7,0.0058917651,-0.221799591,0.0338481459,-6.62027121e-05,3.06952963e-05,-0.201530878
133.8,0.00910505729,-0.221509838,0.0338510453,-6.68352965e-05,2.93587486e-05,-0.201130532
133.9,0.0122946182,-0.221096593,0.0338539491,-6.74393381e-05,2.80141196e-05,-0.200560402
134,0.0154522358,-0.220561153,0.0338568564,-6.80139742e-05,2.66631672e-05,-0.199823158
134.1,0.0185698697,-0.219905185,0.0338597659,-6.85586065e-05,2.53076451e-05,-0.198922218
134.2,0.0216396924,-0.219130706,0.0338626766,-6.90731884e-05,2.39493096e-05,-0.19786171
134.3,0.0246541268,-0.218240067,0.0338655874,-6.95570733e-05,2.25898994e-05,-0.196646419
134.4,0.027605882,-0.217235925,0.0338684972,-7.0010634e-05,2.12311258e-05,-0.195281737
134.5,0.0304879837,-0.216121225,0.0338714048,-7.04334053e-05,1.98746758e-05,-0.193773599
134.6,0.0332938029,-0.214899167,0.0338743093,-7.08256309e-05,1.85221762e-05,-0.192128416
134.7,0.0360170789,-0.21357318,0.0338772095,-7.11877787e-05,1.71752225e-05,-0.190353014
134.8,0.0386519395,-0.212146891,0.0338801043,-7.15197466e-05,1.58353377e-05,-0.188454557
134.9,0.0411929162,-0.210624097,0.0338829926,-7.1822175e-05,1.45039878e-05,-0.186440483
135,0.0436349561,-0.209008734,0.0338858734,-7.20954329e-05,1.31825646e-05,-0.18431843
135.1,0.0459734293,-0.207304845,0.0338887455,-7.23403905e-05,1.18723903e-05,-0.18209617
135.2,0.0482041328,-0.205516552,0.0338916078,-7.2557461e-05,1.05747097e-05,-0.179781545
135.3,0.0503232909,-0.203648027,0.0338944594,-7.27472917e-05,9.29068255e-06,-0.177382402
135.4,0.0523275521,-0.201703468,0.033897299,-7.29108478e-05,8.02138893e-06,-0.174906539
135.5,0.0542139831,-0.199687068,0.0339001257,-7.30491154e-05,6.76782802e-06,-0.17236165
135.6,0.0559800602,-0.197602996,0.0339029383,-7.31626095e-05,5.53091555e-06,-0.169755278
135.7,0.0576236583,-0.195455371,0.0339057358,-7.32524239e-05,4.31147778e-06,-0.167094768
135.8,0.0591430379,-0.193248247,0.0339085171,-7.3319586e-05,3.11026795e-06,-0.164387236
135.9,0.0605368303,-0.190985589,0.0339112811,-7.33649889e-05,1.92795262e-06,-0.161639532
136,0.0618040216,-0.188671264,0.0339140268,-7.33898816e-05,7.65126752e-07,-0.158858217
136.1,0.0629439354,-0.18630902,0.0339167531,-7.33947092e-05,-3.77694433e-07,-0.156049538
136.2,0.0639562151,-0.18390248,0.033919459,-7.33808867e-05,-1.50007212e-06,-0.153219411
136.3,0.0648408056,-0.181455131,0.0339221434,-7.33495101e-05,-2.60162659e-06,-0.150373412
136.4,0.0655979342,-0.178970315,0.0339248053,-7.33011953e-05,-3.68205198e-06,-0.147516767
136.5,0.0662280923,-0.176451222,0.0339274436,-7.32372003e-05,-4.74110246e-06,-0.14465435
136.6,0.0667320167,-0.173900887,0.0339300573,-7.31585874e-05,-5.77858866e-06,-0.141790676
